imu1_acc_x,imu1_acc_y,imu1_acc_z,imu1_gyro_x,imu1_gyro_y,imu1_gyro_z,imu2_acc_x,imu2_acc_y,imu2_acc_z,imu2_gyro_x,imu2_gyro_y,imu2_gyro_z,imu3_acc_x,imu3_acc_y,imu3_acc_z,imu3_gyro_x,imu3_gyro_y,imu3_gyro_z,imu4_acc_x,imu4_acc_y,imu4_acc_z,imu4_gyro_x,imu4_gyro_y,imu4_gyro_z,imu5_acc_x,imu5_acc_y,imu5_acc_z,imu5_gyro_x,imu5_gyro_y,imu5_gyro_z,imu6_acc_x,imu6_acc_y,imu6_acc_z,imu6_gyro_x,imu6_gyro_y,imu6_gyro_z,imu7_acc_x,imu7_acc_y,imu7_acc_z,imu7_gyro_x,imu7_gyro_y,imu7_gyro_z,imu8_acc_x,imu8_acc_y,imu8_acc_z,imu8_gyro_x,imu8_gyro_y,imu8_gyro_z,imu9_acc_x,imu9_acc_y,imu9_acc_z,imu9_gyro_x,imu9_gyro_y,imu9_gyro_z,imu10_acc_x,imu10_acc_y,imu10_acc_z,imu10_gyro_x,imu10_gyro_y,imu10_gyro_z,head_x,head_y,stroke_prob,stroke_label
-0.5028814463178313,-0.30594543204526825,0.5002011249463191,-0.3194263668188845,-0.5582559113450759,-1.2795889030070344,0.7150920121259146,1.7230945361387187,-0.5476200368287706,-0.4599209948637558,-1.1748236759798047,1.7013551686356334,0.6164289846936486,0.41652624053158904,0.05203605308404008,-0.999695164058005,-0.7899497460119977,0.7851461561034292,-0.31241448209658457,-0.799939534302848,-0.12909464111294833,0.8470349475310694,-0.05006322918544892,-0.49667056119869407,-1.727345546532023,0.29537379726217916,-0.09638976815271261,-0.5830616480631838,-0.6334853176907422,1.2966528204753618,0.762443588689834,-0.2772799655899921,-0.3263326274030589,0.4179699176110132,0.16603721027961693,1.138570163588059,-0.6388274623754155,0.8407925575710435,-0.5413118645769611,-0.2834537409416293,-0.5037756178295046,0.24389235537276055,0.07180504262118254,-0.9179990646556301,-0.6878387533238508,-1.4392819011394016,-1.2746512988321341,-0.3982767195022443,-0.9892637487538133,0.27557125485027956,-0.23782095368667205,-0.36331887023920795,0.6030475989147632,-1.7159086704052653,-1.0290524171601816,-0.44422222381904763,0.3764112287045328,1.0153666893290052,-0.38901155675993737,1.1277438632889965,1769.9366263264665,532.1667715497181,0.7517432287122897,Butterfly
0.8622728719144932,-1.9592138775776113,0.6071083625824216,-0.4930537761305755,2.9787759749660676,1.3784225264225882,0.04778014174178913,-0.6930909993087542,0.981102252500244,-0.2545702490828831,-0.12685000647234385,0.14971112198101305,0.2091351471107052,0.10228130166802366,0.6255035571790636,-0.718556131618258,0.7765305156047582,-0.10952180201174438,0.7915896765987386,0.7253290449996296,0.9309512079858544,1.3146338383870642,-0.35555029093884666,1.2747653054523425,1.257806342385754,-0.4601350359593335,-1.020694372815156,-1.101872218627614,0.8744592317170594,-1.6130307940621633,-1.0057202797915916,1.2208779289124512,0.4634957130509342,-0.29364111060846193,-0.6893341567219982,1.5373062728524056,0.41345623644892454,0.07591833222585065,-1.0398057908446008,0.038158051732426534,-0.2321686679647999,1.56486056206949,-0.6239869734218451,2.7517675150112546,-1.3718525639826655,-0.5632909943419542,-0.5663438813370609,1.8951432820646479,-0.5978940669838402,1.2447963857546989,-1.3450218645751697,-0.1961666742772072,1.858923223566326,-0.5047328572761138,-1.2729796763367152,0.9126801076363702,0.5764333916004412,0.6928142078909454,0.8564776339114246,-0.7551736666811038,1868.3702913342302,290.2331029113875,0.32997612291582384,Backstroke
-1.4418822682316899,0.06550796930175648,-0.21563068188658652,-0.07107478731677401,-1.6890513077078275,-0.26452238658911253,-2.002249285920492,-0.88881191980665,-0.8003651773718636,0.22499515360771546,0.24557726622524237,-1.4819880261917115,-0.5009136050828987,0.4065737791225179,0.5007563580150041,-1.1524181920716114,-1.4986478142291686,-0.16835646328903314,-1.91189354629176,0.2906960113421799,-0.3524443085795818,-1.6822114953182046,0.29281949494506443,-0.8383038869588431,0.2745675845006902,-1.0466637031640251,-0.004089366304804026,-1.5219940742779379,-0.8216078480636146,0.24153514501251452,-0.026726336032714945,0.015546115999009097,-0.3423518202054796,-0.32494754534950776,0.32776049236467697,0.9333172290379995,0.37695313479538417,0.15650838103742412,-0.8863552470642109,0.2917483381485684,1.6087170402914395,-0.710061869189412,1.7372918602388614,-0.5430360870532156,-1.76082433117809,2.0588626409032327,-1.8011138140516818,0.85556588301784,0.10304496690059559,-1.172844380146046,-0.15468886692156378,0.3070434752070793,-0.9973916797028642,-0.6435152639760434,1.5114493342499389,-0.0524220291471435,0.8404427246913961,0.5718436482417957,0.663461072306755,1.6208085044648812,778.8174806726015,592.2284371675344,0.5954249912117869,Breaststroke
0.3526272039171724,-0.9283241307890274,-0.6240414398792106,-0.4338336409083763,0.9585128590574828,-0.326135109704956,-0.7566448990662162,0.3811000946098597,1.7250329420345678,1.2860846842143108,-0.1694089390563463,2.4576686688304603,-0.2980013524472166,1.1544752476592246,-0.9668789263946639,-0.5154948762809228,-0.9268602654284844,-0.7498262070585292,-1.1121286289896701,0.690027457653151,0.6606044738211581,-0.47938229027937307,-1.0378541148945677,-2.1593410006210676,1.4489255889402606,-0.04787381633071384,0.6567077271864569,-1.9451938286996862,-0.9233148632875291,-0.09134343332267957,-0.6745279121990011,-1.122915107496318,-0.33853756635983523,1.1814417901875494,-0.6622847275511126,0.05588304844752688,-0.6267395134758703,-0.9227393663007912,-0.9101822698097153,0.43176838459173866,1.5413464100497611,0.038756247506474065,0.6723567793430336,-0.35369930343924955,0.13368968889643412,0.8003496621334445,-0.28492449067832976,0.23295045737856168,-1.0306355742012707,-0.42208661270558234,-0.49791842385379353,-0.033759106162305035,-0.33191070971983744,1.0723665567246543,0.03237321818043303,0.18248662206509134,0.04791221872097012,-0.18240992066345027,-0.1861721674395406,-0.519143304836751,101.486690610912,249.20542155416427,0.5868826862998128,Freestyle
1.9129548077317522,0.48568895919051513,0.07579154996435276,1.0905735873738482,-0.8626709442538306,0.4621756227502112,-0.09768928087269177,-0.5777431421930873,-0.745869303672393,-1.5392106175145166,-0.8816028000930327,0.3936700938523471,0.5878043922669566,-0.1942304393492519,-0.07721525277831162,0.8744775262070155,0.5622990880945653,-0.6860746850335528,-0.4869453324258589,-0.9306209328161827,-1.0016428179662054,0.6264381574697647,-1.170194248051564,0.4661739049856157,-1.2370338807739187,-0.23575964327084287,1.4825953385179402,-0.4044838433257016,1.6593842395052976,-0.29707680422034505,1.9800119542064705,2.4024243630993576,-1.0050247975700217,0.553021778881936,-0.9465133434236682,0.24832151147273565,0.19991119089710022,-1.1925381284726055,1.051676980453501,-0.286845363089419,-0.028041756660699114,-0.5066184862677717,0.001709547539067648,0.1801092406135639,-0.31439611781200494,-0.4789913324450508,-0.735864530710643,-1.05804502008885,-0.2543741137996774,-0.27666441886703197,1.3355238174556787,-0.7114120864379335,-0.7788634788195528,0.06562314262297077,0.2023459838538323,-0.20051607996903154,-0.3568788867343258,-0.9071360003852726,1.5754270001609607,2.247179396142755,1411.794278846572,1080.1497171143706,0.40170662023426595,Freestyle
0.21617766219731077,-1.5318512477286654,0.6473614590200242,-0.4116257640248373,-0.11880451065660391,-0.32636449943171636,-1.0264870520041143,-1.0092317545099525,-0.035524927702971526,-1.5977759816305928,-0.9200624996857939,0.5488304506042805,-0.7300215106750887,0.8269743824250069,0.5776594188783944,-0.9678352484960169,-0.8964871219713128,-0.6860395182328438,1.0761790864212204,0.2656717084382513,-0.5960190627214339,-0.3361670564297342,0.5521339902839015,1.2458409115101305,-1.864767049586983,-0.16178735392578697,1.063850857449262,-0.1887705523513674,-1.0826561208387628,0.07627316193499056,-0.8075978564891251,0.18456499813930904,2.2325049769948087,-0.18118102837563194,0.3442236363916412,-0.5171600587868275,-0.4326655458873253,0.7500553153969569,1.672655943606358,-0.9522175525618103,-0.002895593357432863,-0.6830082236283365,-0.2269142209109955,0.1568274306271148,-0.6093985378191699,2.0583099046974764,1.9320937934367297,-0.4522515708299476,0.673291124020715,0.11982803293363409,0.8918345547343052,-1.6483120976913668,-1.8954460392150732,-1.2272697820601524,-0.852856556396959,-2.063541075698098,1.7033647247807713,0.3185604420095349,0.35938637458203226,-0.9705956683256126,540.8217976207593,538.4117457342142,0.5645227976753137,Butterfly
-0.07621210378346449,0.3300065385309401,0.28688856900332943,0.9963308814017153,2.868587519090185,-1.3580517168351964,-0.7546242113337531,0.5444706063689071,0.07091918795405136,1.7866200392743552,-0.11385854967043252,1.9815602208407233,-1.6889010626842436,-0.9130272878543464,-0.03276342841942481,1.3530802197635976,0.6699862336071909,-1.6007645986267942,2.667781835848399,-0.6554623762626723,-0.6205766213284738,0.6658916935007262,1.3958135934676996,-0.751217004003282,-0.6359595623326215,-0.11773468854561764,0.6631077717628718,-0.0714772871102915,-0.5354730431216943,1.679270749397639,0.26909930946937816,-0.6448812076464363,1.3069677414880914,0.1857972111890953,-0.9646117815966353,0.7464588833499368,0.033817981664695074,0.36988564543278113,0.79033314950072,0.9544395638069134,-0.07798590771324498,1.989545019348514,0.22409725689297258,0.546756251366697,-0.1955004940838026,-0.7588435512679454,-0.8572730582048911,-0.5867964385388642,1.0766276061209141,1.7563698592299626,2.3344762700044837,2.2193141640168905,0.5543449541319796,1.394676200404483,-0.6577545123418218,1.6002079389564334,0.7194485529248302,0.9526709411535461,0.30980601044233735,0.7118537621326417,1237.0123775939676,162.94144239541612,0.4119470574004496,Backstroke
-0.207105280428242,0.016836671113494073,-0.016622805061857704,0.5032137622946925,-0.662368994824063,-0.7614298993894335,0.3697522842234861,1.8494199537397775,-0.1507933143865267,1.0330668744518097,-0.6994263975842172,0.914462582454441,-0.9915359409800271,0.9565105169690351,1.090188743786225,1.6674678506273977,-0.5143101958053717,0.6466491878592322,0.3048429558141681,1.0113399315271843,0.9972979194337794,0.16957696824876503,-0.4426214784111974,1.6607508104684476,0.6988586377203888,0.5124647798330957,0.07663564853885799,-1.490639763668586,0.7616750381855786,0.5571140547456157,-0.5234892958495851,0.48911388938023914,1.7910123800101407,0.10194150945685582,1.1775326852184846,1.847461826389765,0.29125564863795517,0.45681362727154395,-0.39704742852873603,-1.2233068023198137,-0.8403940362491065,-1.5854047251503303,1.761932137073077,1.26191569557605,0.6209570985541046,-0.21451234529082136,-0.4322122061663282,0.01581559647450914,1.36458783216217,0.0314177827581239,0.014942419353594305,-0.3725876625735283,1.241585690621829,0.17470118144424168,0.27984513233345526,-0.5086034311919534,-0.0699262837429745,-0.3176399650028499,0.26935866027597577,-1.4637467827410011,950.7020834023568,918.3650988039609,0.3472365976229709,Backstroke
-0.6603399733451094,0.05310188495033036,-0.500782534177773,-1.652071039244055,-0.9738726548272637,0.8077087038646149,2.180303102733281,-1.559482295099386,1.9223468524636127,-0.5093805613484588,-0.9571449963877648,0.7248893570444555,-1.5934714767356808,0.7836732727884839,-0.15328403202625346,0.035096490893878396,0.037798303102510866,-0.1351060983614371,-0.20445501806017752,0.972654159666356,-1.1604007954599154,-0.6858461975424959,-1.4153301588971359,0.270667332058229,0.6089523426921902,-1.316392841761924,-0.4155376793017358,-2.2069578783665165,-3.0366125033742954,0.7091788474471598,-1.1336486880926555,0.14108323674933104,1.0190416295342988,0.6811408839314038,0.3202006848682911,-1.3191012932484512,1.2509674257634902,0.061650300638819766,0.006594585778837259,0.39295910204458906,-0.15504272842396702,0.028027937339037634,0.7081973086326764,-1.6462236843355627,-0.12017205307717918,-1.3527032193965987,0.4701092264721456,-1.1955798984248909,-1.5556758673635447,-1.7834112460717815,-0.0037534616060737325,-1.173902773436824,-1.0385295258629932,-1.2438058869466877,1.8674476053114595,0.6471950949854405,-0.3676507046818039,-0.46864533382590906,-2.360120830585084,-0.4812668824916815,1212.2937786262921,1061.0611893476384,0.48810489688849534,Butterfly
-0.4039626780477811,-0.025302722348653148,0.8424766135830533,-0.24065817573717543,-0.1675137371516003,-0.06611565215541734,-0.6381880620363751,1.348334107779513,-0.5890543414124632,1.5570827619264103,0.49363600060374047,-0.09567492767194508,0.12531784141058785,0.7802092066231201,0.2518710675549277,1.0791308519186924,-0.9218769921897619,-1.6477068411101998,-2.59336525439281,0.5731535737897124,1.9098492360906065,-0.3918729432693233,-1.027845458415415,-1.306365295603048,0.13627916297576217,1.3735303301719815,0.25751705652495793,-0.13988451204843427,0.5827898614482384,-0.18898645568523392,-0.2261794397671412,0.3340971227576207,-0.4292321121007604,0.14790213678147188,1.1149205746907147,0.20066664468165926,0.6405687225192558,0.8245339687188079,-1.781831101428339,-0.3888542978050995,0.09866609960439704,-2.233437874798531,0.48482497964374016,-0.3781955425640943,0.891005068665459,-0.0020748674987881577,-1.1876360754011128,-0.09238946719680839,0.4078273128652078,-1.9291789925442744,-0.20588475966809267,1.013266071399067,-0.808550213563157,0.4737703519103391,-0.5508480805594458,-0.12148428676199412,-1.2338061303641952,0.3667743085809614,-0.7588507966780877,-0.3282632085347188,728.25962258645,826.8304485491407,0.3530674272251442,Breaststroke
-0.627806532758272,-0.5051641750214544,0.9751614550998557,-1.4856240993286836,-1.0972169576313617,-1.9315678023634413,-0.25280585249177484,-0.8247692185828881,-0.5547211809924265,-1.6150288863899045,-0.4803209612254904,0.48373228743522256,0.6800190405331484,-1.4350213123244968,0.9011364135828099,-1.611260295329189,-2.151976392118689,0.409953018688041,0.6544623635601842,-0.42707754295488265,-0.7519941188193032,-1.3718261068080055,-0.052350205066241856,-0.9537299804595115,-0.10638148546785328,-2.0699096833963964,-0.29662435575079016,0.5390280349763741,1.5384705199301172,0.11507883433183091,0.11255921652046941,0.11328899525868474,-0.43174361200805156,-0.5065359214317708,0.22997372312378117,-2.052321414980632,0.799057178585123,0.9014593311293695,-0.45054608876543073,0.5887729008961997,0.8028967801067224,0.7053263279195467,2.2280998256312867,0.8370278843638737,2.3513764042391574,0.2949155743809755,-0.44059351461018004,-0.5912013422624327,-0.2405371353479146,-1.0312951508937225,1.0659262963586131,-0.41747589723467105,-0.9042365875708429,-0.0852864886534247,0.8085956317732697,0.20395516638478756,1.1904543897422435,-2.055179284529533,-1.2935697493851925,0.158827120459334,240.5463063189207,179.78584378736696,0.4059777323172383,Butterfly
0.7663114410745667,-1.6862723140442446,-0.8171505137683704,-0.2581208382169212,0.734056350940301,0.20211206671516616,-1.4620358772309885,0.19579192125819858,-0.8141335984558898,0.7812134911910329,-1.9034869590840182,-0.1841578145566267,1.3158056298701508,-0.35581099943868455,-0.37735559505146476,-0.7081865712493034,0.8059568716241071,1.3070635136093827,0.2996439533705404,0.41676825355630387,0.6481807503908129,-0.8734620401553712,-1.3142013919832156,-0.8975364099803965,0.7045359345990088,-0.2310369379764703,-0.24073488876676202,0.09778799979019781,0.7152488276747938,-0.6938892479530243,0.90762116627706,0.09534807680387314,-0.1471314064978941,-1.4238014823695857,-1.1055986108702067,-0.6521146018088837,0.21244074540645727,-1.2812001616668873,-1.8236801559177307,0.9838586928373735,0.4484728547405705,-0.5314584026442348,0.44203104999652465,-2.447412928120487,-1.2204334109920996,0.07166400272855028,0.511597347155038,-1.107166824171746,2.2183870964585983,-0.4502624560114553,-0.17806917663399424,0.7799233216312197,0.8366438230177378,-2.3788549410169013,1.950890942957241,-0.3510226034217907,-1.1630715629480144,-0.5590884053812164,-0.41778942610684877,-0.5088464692740803,1818.241866688558,1062.0631002434502,0.7102967833373705,Breaststroke
-1.5332091032089832,-1.2772079634610316,-0.4685878574474897,-0.5451308172306892,-0.33452943606329505,-0.3592588198697488,1.4434010550415135,1.7908507211018605,0.24104061568892288,0.1317618911360008,1.2249486990649743,0.17978991415893605,-1.4348944172679192,0.5021751302230139,-1.251851210753249,0.38941654822583827,-0.49589449182463524,-0.464518901487142,0.48313582888601286,-1.33326993674007,-0.2891456567134384,0.13306358216866515,1.483834070996152,0.36903046159209113,-0.2594298518035994,-0.0035908143644863277,-0.7345310729077907,2.0679063014576524,-0.8410908724126231,0.23789543289734583,-0.37906504084109266,1.1176926917491954,-0.16417130478381747,0.6827036620098828,1.3142032382506406,0.04785471876991834,1.9611600144958636,-0.073473119280274,0.6809528557289326,0.8337591284087593,-0.7838712002431192,-1.5226105990532517,-0.6998392754518734,-1.1165495471661908,-1.0354330549301372,1.4707508017456417,0.7859930068130896,-1.0897536368740417,0.9195428165244541,1.3801470484755558,-0.7561587873021338,0.17873451695178819,-0.3248422034806238,0.3583971667399662,0.05459634434637059,-0.1684029385279468,0.2149571361519585,0.2698617943354833,-0.6834921734975681,0.01862953781601684,1672.3073228127823,548.4567545864711,0.47420628606323356,Front Crawl
1.162000050412134,-0.283886939092219,0.6793589196671124,0.6819630334848084,0.954009640149337,-0.5744999525087819,1.1747430433514232,0.6253235923021119,0.19869363265730602,0.9065438360128928,0.716719819785072,0.4197167565339466,0.9202700922525864,0.743052440401393,0.033660069639024126,0.5232340204808887,0.051369792901339945,-0.48477007060993055,-0.9462132358636108,-1.4587056311389859,1.6376215029763426,0.2512502103566459,-0.16490023189730307,0.1187177727572401,1.3564468270659549,0.16454434268740012,0.9706698252444255,0.26188199859086086,-0.4232911679393279,0.028042748732329315,-0.2957913028424985,1.0278679098076984,1.1779038880562642,0.6424975616514467,1.4658202128732363,0.5281898476704043,1.1898628432633795,-0.7441961821840801,0.13351452262883917,-0.8075852258517446,-1.7389034091404956,0.1557802662531209,1.0403081676830641,1.0073553360376972,1.915763864523729,-0.02608744499497201,0.2792387288632066,1.8865763009816197,0.30785733159145545,-1.4556934526710184,-1.4000561701948055,0.5299558442720577,-1.9158610646069432,-0.38683306182102434,0.37820171534500313,-0.662013047860945,0.6991328049677933,0.17075120981354325,-1.123971212176619,1.4276507107462968,1417.9512008505042,938.8160935106781,0.4094207645525534,Backstroke
-0.07968652514256114,0.29172011607041304,1.8275320647572548,-1.0423543374662012,-1.0291891318000692,-0.844872725633846,1.1057341394659173,0.0025089518008117317,-0.8192531307043045,-2.0871521121252736,-1.0831329637471978,-0.09681514604618252,-0.31507119220442165,0.41587594936789407,-0.5255551810876076,1.7292325248562996,-0.39114209830834573,1.4134126961357312,2.27988796281914,0.7667960826874158,1.5995091431147546,0.867560938589458,0.6662916239437388,1.4055681772891047,2.285016382931615,-0.5439596943990084,0.5977524415826481,0.6154319272393507,0.36434317357817586,0.40681704327129586,1.5851160150058183,1.046459971130561,-0.5134584855803368,-1.2822653291555366,1.1934629806105945,0.8871201092591612,-1.1254723151730475,0.46487693197178936,1.1197552041459375,-1.1438117654213429,-0.010887112869822246,-0.9043751659532528,0.8331528936153862,0.38277181925402515,0.24248699088083162,0.08745578090199932,0.13724180700728988,-0.4518246011284905,1.3286637325582435,0.098409159388646,1.5604612227708452,0.7649838931675396,0.3798325428660608,-0.5258532655394104,-0.006031443843507567,1.615080290478662,-1.553066564353889,0.7661770324853083,1.1621405710525496,-0.37869319348643865,486.188991577173,481.72464491513244,0.21936354341059142,Backstroke
0.12694778569537224,-0.858247947199117,0.89599030831256,-0.2352981747205628,-2.0568315021542256,0.7499294713186874,1.109795811304745,0.4681756226947392,-0.6743698643476563,-0.5107033598943493,-0.6153790061138967,0.2543778353359186,2.6734580778155426,1.1791862820848478,-2.375736051521204,-1.2488453498052485,0.2944777702483956,0.15325146444605264,1.2705429390335607,1.0577344408478304,-0.5737659705718292,-0.5351687864314292,-0.9931996112853362,0.5993719739878455,-1.3127506361213819,-1.7610605986752335,-1.0062895038598394,-0.27101182838288257,0.1151585923183216,-1.9052286440092605,1.3438992569530683,-2.0265563190171587,-1.3168524711916019,-0.4045488617584967,0.4830962100771067,0.9702494807759705,0.47759646352366847,-0.6521871102043637,0.4918813085649463,-1.772118885220569,-1.5264416482093222,0.7464788019358921,1.1373863005635216,-0.8969375146020958,0.5572264677878297,0.12529394339354583,0.6440809625982998,0.7650322500931588,0.33272008437132994,1.2110123533246615,0.07992350132367304,-0.3120148395191323,-0.6865884697465394,-0.5687496950436894,-0.8145768420479043,0.5129860423476482,-0.5578829061264483,-2.217835579901644,-1.9754051253998912,-0.6756971028378642,1731.431763577264,193.18468001172508,0.4148669247763127,Butterfly
-1.2769879102008637,0.47521193057946554,-1.4018522121799115,0.4224155825631939,-0.3789849789530495,-2.11549837200535,-0.5773413546948073,-0.3231662023324405,0.4596865427839615,0.5867967160363715,-0.9420988290577884,0.3518451752151066,1.2335541306512374,-1.4456460106700901,-0.25668162717257104,-0.6869555735865934,0.18316891145862382,-0.2859237315147897,0.1443536514999156,-1.3814487107715223,0.1246994056705363,1.5257711474021833,0.4340234374958748,-1.6952897806555447,-0.4040583683593897,0.09035044653631297,1.33901748445103,-0.931528032725456,1.4639684876441768,-1.2651110012424094,-0.2341538301282609,-1.884302398456134,-1.4463951368141121,0.18496789204938877,-1.627910152978016,-1.6402303388229937,0.18842927909979387,-0.4747490025688499,-0.7051539978419482,-0.5974273001462189,-0.2454631475110814,0.8938969438050296,0.5954379927344566,0.16429875871028612,-1.2718427129749603,1.759497746585779,0.9952111546282957,-0.31367200750433155,0.6112973068584556,0.22619043094273208,0.04440427166255592,-1.1747411522470101,-1.2172410814020629,-1.9808529698706407,-0.690186614071938,0.33077517642264453,-0.10642677804013134,-0.12373807263733758,2.2557176475875784,0.26154736023679814,419.5565580244094,436.5068855973026,0.47272602053852947,Breaststroke
1.1786310668494362,-0.4292209192116837,-0.41407596999186214,0.7575955693089953,-1.7185078380375949,-0.9875320744394902,-0.4524178198456219,0.3713510495946143,0.876986849421954,-0.2133302183948289,0.5269057090796319,0.66891659989459,1.55189541213449,-0.39025083398316923,0.04903065904947626,-0.23498307073071356,0.392093483002689,0.664562139517512,0.8419947561905093,-0.13481539509821927,1.1239576452704167,1.079925121680048,0.5158858426194294,-1.5689604075922474,-1.5398359083606723,-0.35488810602410525,0.058535538696632056,-0.3142396946816516,1.418900983020855,1.0381178180868558,0.3156986501795276,-0.9431925245487938,-0.47401887276893984,-0.41135234189160164,0.7059738757822562,0.630280171155563,0.47218443072059024,-0.38705287270115984,0.8648034429908845,-1.582266202135942,0.3071404715684892,-1.2890995678591153,-0.012042445095176574,0.28917449386242045,-1.2097441077053082,0.38502123078474015,-0.15652328325181086,-0.0972433906242037,0.36221519025706284,-1.4102178702858648,1.391515328925374,-0.6182073499215497,-0.1386485119771393,-0.38973062786414037,-2.5438780951612108,0.625542960887233,-0.8529848547246845,-1.620418251846312,-1.250502470584792,-0.06204671213163385,772.0701657677064,1093.65842889792,0.639250668864987,Breaststroke
1.545634960171873,-0.6650127247795103,-0.6306035546895123,-0.4641677578842229,1.8182689127654503,0.4201267659112424,2.00987853188665,0.09531900162218057,0.3240006129654802,1.5552977728008515,-0.07165222604765481,0.9396065150354724,1.1024398202466397,-1.387772100038897,1.3207613428086478,-0.21861919511040157,-0.24954303556845286,0.5741103440346393,0.3511099569583806,0.7388635516798224,0.6043298953751368,-0.20236373712356642,-1.3778093731766778,0.9142774864234959,-0.6651813141791711,0.6844902202291212,-1.124089752137009,1.1385062906446335,0.0847581120135161,1.6940743666620677,1.9695757523996966,0.05156138773752025,-0.17187244439388583,2.11412503953614,-0.9491501910279854,2.014607149939787,-1.1999726579073589,0.010721903015183665,-0.8838322092422597,0.2838940002671132,0.6382132265265874,0.8490561103435621,1.2639042403742586,-0.5890049447228591,1.1674579906649278,0.08336911809449041,0.7403702932195013,0.36742683515732866,-0.07500355880155851,0.44843266695883977,0.44968466268597984,-1.8804547518264279,0.4794695358659985,0.5693013497193642,-0.16093864376180822,0.7425180601349821,-0.08883110857704635,1.0531445178485184,0.21306599025512724,0.14994191513256044,1764.6149501826055,142.71833698031668,0.3848263124917862,Backstroke
0.7095905257500736,-0.5280962929879094,-0.5175125219152583,-0.23224902779282489,-1.779803490494998,1.3283630689034966,0.3827281029445585,0.6111528969890385,-0.19100520934679066,0.9718050071407864,-0.3227733338859614,1.750043051616026,0.13188819647519417,0.37124881020389466,-1.3893104562559886,-1.2926262865350366,-0.29972834927295644,1.178500499804823,0.5710770557798365,-0.8645518436267603,-1.1707256685495375,-0.052188398943449316,-0.9296632995792319,-0.7654331251180804,0.1425430820499557,-1.8999746578756975,0.6948937053968096,0.6275686153588428,-0.7812963751131644,-1.9814628111500496,2.3988276894185465,-1.0099447476167867,-0.868810378809879,1.2770515734188022,-0.8716260847119885,-0.7129791467741213,-1.7136934056638171,2.2608476066609615,2.385326619871544,-1.1182500219212335,-0.6860799317342211,-0.8918631475673406,-1.930246933989154,-0.32662797685400846,-1.5006909840632838,0.6235079174450625,-0.8461112649093766,-0.5896414887404978,-0.6336645648332613,-0.32983100536298326,-1.7311219574938002,0.3984247238655957,-0.557134433452958,-1.0833652414698909,-1.0055656717162638,-1.3746521094136321,0.3664756115376895,-0.5557249674905704,-1.6660209003162734,-0.18514400206988588,733.2691054083682,672.9152649061372,0.17815060123122725,Butterfly
-1.2147547757935393,0.5258598363165523,1.9044099960353544,0.4841469729115735,-0.7376866876706978,0.8538581963503189,-1.9192218213441612,-1.0942316925502162,-0.060995071765276576,-0.658563625220592,0.11080558015774283,1.3526297396365672,-0.10258297070391975,0.8546194474402842,0.38852602452184537,-0.17655044504129858,0.717032296732069,0.2832455993002656,-1.0072518077725618,-0.03938273252493757,0.37006597817783826,1.5128419353846538,0.14337851696373322,0.1251242200010412,-1.3856176759523315,2.0165763741310405,-0.37265699106670064,0.6575644048902545,-0.4816199382720409,-0.2670117972515081,0.718860113892369,-0.7158051049857559,0.38374959269494574,-0.9620352103009404,-0.5316703662486342,-0.2879409065332668,0.20494663131104912,-1.6457595263168594,-1.040320621002173,-0.2480140697450574,0.7233441242289184,0.01513671669335609,0.7790596041036103,-0.8759034423010741,1.736151675771573,0.1574026558013709,1.3674241700303826,0.24600255010314587,1.0040619005523874,1.513517933475886,-0.950305901125579,-0.462751135788622,0.12727911728363187,0.003934058421449005,0.37182914302427983,0.9144427622779747,1.478208745526673,-0.6696575361930279,-0.6839258434350715,-1.0549499863889222,164.2883421740512,867.141057994034,0.4187652186187708,Backstroke
0.5791210710660528,0.07488471882458442,-1.6726006487830172,1.297126279542768,0.1636198854746102,-1.0960246155328024,0.20482097563700957,-1.263521624093676,-0.752441701957883,0.5739926513336804,-1.7301345297253927,-0.45725189041459413,-0.849320810825172,3.098603365716259,0.8780913320504251,-0.4955264627879906,1.2952039725323667,0.17647225256619287,-2.52370925461957,0.3632432848452005,-0.9982225193912982,-0.8907046467102837,-0.7751731329964465,0.2965583874236083,-1.0295860472236367,-0.3298519708579707,-0.6597956245698402,1.3322685712693374,0.39447468195691704,-0.9978457993330555,0.5033164790981576,-0.011125670165706786,-1.415852925530655,-0.4982246594316022,-1.818610224949195,-0.13020212895280173,-2.0058438069427726,-0.4142054199991352,0.49537307401953645,-0.23878392162928222,1.164871172898309,1.7472526949960294,0.3209244853901667,0.9032112574814779,0.5942488213144256,0.0764638773899553,0.4452920422519685,0.2548961478259406,-0.8693324606266629,0.4402246882486034,0.35662286528951725,-1.504847789094829,-1.9568463652463723,-0.20880710301572417,2.2057214410172965,-0.6534751762742825,0.05586058145223416,-1.5294829013309978,0.5507560785978082,1.7067955256300043,1284.8805011541947,336.1264649985054,0.6832764165433273,Butterfly
0.15485508763570888,1.6283791319931293,-1.8688652932801901,-1.731330060750137,-0.8363639500620061,1.2793534541068148,-0.8316980607695965,-1.6589284248679461,-1.1695730298823026,-1.2426626572282404,1.1553961679571554,0.20307150382591327,-1.0501050869576471,0.7763596583858323,-0.8246472033798045,1.1975444652791312,0.05653127173886574,0.8480614757459353,-1.5194915216552152,-0.14181357650895954,-0.09900520939201993,-0.9977389526918103,0.6215804765519837,0.6084728455127635,0.803629121272259,-3.2916643868799413,-0.43692324900478596,0.20748688962871975,0.8299035366815721,0.003345445826745397,-0.1171181040212178,-1.1227998103547856,0.49227671895597236,0.7188325767633759,-0.07263645983814371,-0.40105121010722156,0.4533169950943161,-1.7588303835313122,0.9935598584144414,0.1586520740154061,0.16995214296484035,-0.620668455377829,-1.583493042647371,-1.8105294070751654,-0.9362457932637718,-0.35692364526918086,-0.6506110442494579,-1.573131259578037,-0.06856018816995144,-0.015394257288529417,0.46636537988495663,0.3702159035916298,-1.2287541181196553,0.21725841720153588,0.20325584373038352,0.2837742064957912,-1.8569274219502758,0.3480839296499446,-1.0079971938732366,-0.7805330763557815,1493.8236973489459,516.0214369183216,0.6474140389109763,Butterfly
-1.3052712471325676,-0.3689093400034194,-0.5285541534336025,-0.611102545071049,-1.218387969867604,-1.0551233997049725,1.1981718246566575,0.2435705708036604,-1.2566494542389512,0.3540154411547564,0.9623300571835196,1.7126981141600155,0.917575658062002,0.6313651411533551,0.8362217592803243,-0.7202319087395248,-0.7033496551933311,-2.1478289257701335,-0.5064825913760211,0.4125572226571474,-0.48747265938918466,1.5993508215819146,-0.29719335694105536,-0.9333845219809167,0.5234481611310305,0.48877898583921864,1.1632153029142818,0.6267542521771572,0.3682758246515674,0.21623319501103516,-1.1801393151103101,-2.1035492366319777,-0.7970342818432559,0.2165826273098632,0.2689175248970223,0.0819840732791009,0.4478219054475254,0.45323909853844124,0.4801048897234529,-0.4844318565496137,0.6857297745868202,1.7703079263127761,0.4238703677677496,0.17077585429254002,1.8580620606100804,-0.8545092576505726,-0.30391964292445056,0.065074261153234,0.8114070612032156,0.813485733448313,2.5368155769643996,0.2675661304777719,0.5871221249625769,0.9146566087820842,0.5777241419914838,-0.32406511263690646,-0.27614085131972305,0.2811736321299888,-0.37746787220946193,-0.6154319449756065,890.3095642964375,955.0280649373373,0.5221762927424276,Backstroke
-0.02429738377081549,-0.07347866159040038,0.2873106025759928,2.80446249273608,2.0399641600719596,0.2653361653551545,0.4081904694201736,-1.5295382188097704,-0.7024466741065368,0.6561282493076209,-0.7473836010498679,-0.9499731890155309,1.560402799168632,0.2548950756738367,1.5977180083529519,0.8151845523581985,0.26789390057952633,1.1342480744602244,-0.6435625337709185,-0.9822984042807624,0.3728056360060451,0.6913791398896082,0.7148510511616506,-2.2216093598227244,0.7679995036574033,-0.47192001965018215,-0.05773440159372801,1.5022005294704834,-0.001217976142942459,0.6802405082802594,0.3465164716423131,-1.358228936705342,-1.1726853300712619,0.7368710416970289,1.328226440278166,1.4349322471922832,1.9477594863463021,-1.427200227040386,-1.033094134394632,-0.4147817404180586,-0.5193191168626332,1.7733459908496774,-0.6627227619186624,0.7929942606471554,0.5444304428710093,-0.5818765947097578,1.726716328408084,-0.018125500123989658,-0.5626991845543756,-0.008175695635546017,0.08336707890502716,1.1200626310565907,0.7136706726090825,-0.6211467316450869,-0.4245901686694733,-2.062473543841469,-0.6527893963123037,0.5582570239914988,0.970275003409685,0.2245237485818239,1458.5558202589848,426.59725652344594,0.5234037368056103,Freestyle
0.6645344890332625,0.7261239468194264,0.9207548206407568,0.02690271604402522,-0.7016338031595739,0.7877846457522149,-1.440542764022799,-0.39183157506681926,1.2040528673405135,-0.5352829312605818,0.49186192099534254,2.314241793116171,-0.05680784072305406,-0.01661091062644593,-1.5624142765828193,1.572135338147079,0.13500223397507613,-0.20510579273261204,0.7481127837851203,0.26885064967481703,-1.4887918047142368,1.373804769839933,0.7846635070012634,0.18685342783110584,-0.9935507224330902,-0.8332162978617768,0.9183521877719192,-0.4150302528151681,2.4130653157933297,-1.0512570855115835,1.6711861347159178,-0.30974972773632853,-0.3436874288458483,-0.34793574777889075,1.5053108763102052,2.676873960144194,0.6745433535690308,0.22419409541552227,-0.4741942147223203,0.6646658656933385,0.48621861616046513,-0.008687035577971847,-0.13734128611486407,2.301322902243708,0.10006768450297995,1.8968854364497276,-0.28431327082169316,0.9099960402717968,0.7568594151374113,-0.5172018230057542,2.210846859822819,-1.8356484090351153,-0.4821234815270969,0.024569779140851233,0.913163998688822,-0.14409454653220227,-0.9340654320517381,0.009903413574610331,2.213614189037014,-0.8667674531922629,1307.771954164003,615.1018448094327,0.5555226499180601,Backstroke
0.7560752738231509,0.17657704079918468,0.6374484348615332,-1.6909938099032746,0.003742192503450814,-0.681115583200441,0.4688301704954775,-0.9075086045688079,-0.2244169426971771,0.9869261855643823,1.174117914847388,-0.5746394337498206,-0.5223488099829607,0.33048769396451144,0.47265432103141636,-0.3125946490995373,-1.7987339612135007,0.6999474997734687,-0.05733829891542802,-0.19791332628371883,-0.9219806210308694,0.5154314213923693,0.09205597409944712,-0.6548418272068035,0.2677219561762784,1.4320247697791753,-1.373589511028292,1.6280316034895048,0.8799923421181768,0.5499499750684755,-0.5531531131658776,-0.05826432901800532,0.06192551189613815,-1.3698914462320473,0.3768916719285795,-0.12542827030118064,0.8938587796799462,-0.5423534354929624,-0.8222043562890342,0.08630014457941763,1.7494768997217456,0.4923658596725364,1.1239490703285464,0.007570580022960183,0.2951779826021213,0.568086964739928,-0.08930055195655856,-0.26255311648908514,0.23857116125675049,0.8696821658828362,-0.8836319375035444,-0.1695436139229171,2.0404705338107636,-1.3406475260638004,0.21747925575515867,-0.265588440516662,-1.2607440331047552,-1.7257572533987358,-0.21641586917562544,-0.1890338824221161,631.2488793622143,982.9268835204518,0.3732974435236416,Front Crawl
0.3772613669488557,-0.30061814598865316,1.3756854032310164,-0.382550143348166,-0.00919252010603025,0.8975930518882538,0.41062772725160757,1.679676229538824,-0.14601868369404192,-0.30535574615190303,0.25574101275759176,1.1002753932377742,-1.2835034051424818,0.47624896159387975,1.36288987802892,0.4598931017117662,-1.6451568100492446,1.8641269295320104,0.17133582364503597,-0.14438190952206303,-0.5932236503765378,-0.05488956107022663,0.9563496992187384,0.2662504333627202,2.0867205652508436,1.1297146095911588,-0.903333300851503,-0.7739456715535877,-1.8529008537647391,-0.1338588526864959,-1.654474891709806,1.0986915460794782,1.0605383885296409,0.8932303969554567,0.988114536936715,2.512203079331624,0.7789775223113031,1.2658510513923689,0.19498057283112674,0.05683191946877378,0.16504471794180653,-0.26152290161194314,-0.8327700990559943,2.9504024266347137,-1.7322713645314987,0.4161899077984945,-1.1288294266662409,-0.05275429448556834,-0.1709294493304,-0.5265376972943834,-0.4922080466035495,-0.40713607450692796,-0.024600029438825027,-0.45614943746002495,-0.6361043051306112,1.6164550719994086,0.415434990554191,1.5761857153772105,-1.7337131475913892,1.422423088977983,472.7867681800957,645.7529182262683,0.5810468251149761,Front Crawl
0.5912314168473797,-1.2492571763442435,-1.4630855942339291,-2.4688732214643623,1.010309151966578,-0.21389012894095955,0.6634624864647864,-0.6906803521758391,-0.06548519971464722,-0.28069752741234816,1.8567541866680903,0.3066004402244905,0.5446916683935165,-1.6647593379775552,-0.05071284051725122,0.8759363168126841,0.23351038247702455,-0.005898982872358294,-0.8846097866809468,-0.24140407233532196,0.13978591105446397,-1.0418872442150264,-1.2379279063131958,0.21138877745838314,-0.3618981959936565,0.6417686830588942,0.3319699222894286,0.033978002772421856,0.2657257997046097,-0.4372462597302416,0.8908411229234208,0.7345421306176902,0.22535769858957763,-0.0322476315030244,0.1957812555742862,-0.0555833684516715,0.37850780972098663,-1.1978274657327672,1.0920280343158073,0.9910224845011335,0.005367304953967089,0.32864925885686275,0.07313767291137774,-0.8364093864873767,-1.0338152994225898,0.3972613416665488,1.2469204454096816,1.0329162606836868,1.0820636065792941,0.6065512934651891,-0.7448591675479894,1.0699330314488216,-0.4266370354754571,1.6154577530860006,0.7430403356302983,1.0672031620014157,-0.32024677682227637,0.8088114063297915,-0.057856647770490155,0.3238595328726531,1037.2998592314145,623.119001745915,0.49537432928070374,Backstroke
1.6736113922530955,-0.31083455905301555,1.388336538358937,0.44092071245615316,0.6623524606710589,0.8951424275179645,0.7755288519133088,-1.0865457029233423,1.444707665832734,0.9066509835397154,3.117850841917806,0.14906760008555933,1.4292674810165193,0.39691359050699865,1.5867599712212874,0.6110046261723753,0.21779893276963813,-0.25551822494486626,-1.0711660486967574,0.1727198202185747,-1.3120818624619264,0.3368540519914881,0.1383078166959836,-0.775410660018917,-0.2880184969775809,0.2770139511928993,-0.5251669394794412,-1.6364146894104121,0.4014690411719808,0.6417176273622246,-1.5562852470525328,-1.8051948139077678,-1.4046747315879442,2.778228487387766,0.08954066485219583,0.9566630021163742,0.31762426858325266,-1.1664419057322175,0.6836871834907166,-0.6894275124612659,1.4464960903337387,0.8722702500176267,-0.726454915710844,0.7880751777538773,0.9756219734539342,-0.02720752803027454,-0.39334509941211654,-1.46730115201835,-1.0491091357281088,0.8451732169684856,0.4726037336156983,0.37503546046867975,0.3570319952242285,-0.785356322356455,-0.7561894458777496,3.200767041194567,0.8893343206906867,1.1020187368453844,-0.07149447295817196,-0.5446508728619281,642.7932042378354,470.7440915314051,0.38033264022801355,Front Crawl
1.2260339099106798,-1.073702412717801,-0.3120953200462915,0.8097847602782187,-0.8268010377310057,-1.8395954925862088,1.4959659598217314,0.2483385337657695,-0.9283825705313375,-0.8359729436834187,-0.12612173591138312,-1.3029128736478253,1.2793273227198214,0.10100956837474133,0.634221784795587,0.08214322129194503,-0.2947497402339099,-0.054742981984318144,0.041103373634314384,-0.8682777858034701,-0.8834564736073127,1.2320932565095257,-0.7742344462222394,2.086863330597774,0.5816995408619641,0.5048524924741954,-0.2043518144548146,0.2512418069274512,-0.26943891209188064,-0.24714791650192805,-1.5720857544628344,1.4525772003065074,0.4875298692831819,0.940178770533361,0.12559498739848454,-1.0459956550615102,-0.056414492389340265,-1.1562165517928897,0.05553143162164472,0.836266122098448,-0.12849967550625108,-0.0699231659041612,0.22546127908939623,-0.698730041905953,0.22129143519920022,0.10701405187524211,-0.05456866196487304,1.0744016082186116,-1.2548472896365142,-1.3080009252147182,1.2632628589052985,1.6089637388139888,0.3398108990290266,1.1699361050510368,-0.357962412975686,0.10620602923170883,1.1257349546323183,-1.5822939326627952,-0.042224912116261844,-1.1689483121950888,1169.7359019589253,805.574636852952,0.6133061993076239,Freestyle
-3.1170549537827434,-1.9766066811237784,0.4814943098048676,-1.1616623761687532,-0.5758272174433068,0.08497609022887453,0.16388898961429843,1.4368211545616603,0.02705333838999352,-1.136835469363095,-0.8325297430408646,0.6575000949206515,1.1284387402568954,1.5040132767261527,1.5193571651128563,-0.9288259158876885,0.6341817862435671,-1.702290329775858,-0.7921050385119961,-0.23791022257339303,0.5281210276006282,0.9938034420019788,-0.356916329852099,-0.2329986846244131,-1.1498316015207564,-1.8279197865560617,0.49588813338650917,1.0756076342611405,1.0117550010989058,-0.3507164119410285,-1.8845587746845271,-0.4493201971544639,0.2183146344186392,-1.3100370825116776,-0.40073109165571846,-1.1334455651551119,-2.636553942544434,0.11295785751025805,-1.6466382292920416,2.040687693437644,0.3832332869975673,0.1578965300950419,0.08433254026406556,1.3894241956254907,1.2156657415240524,-0.5644353355369462,-0.39252006166200737,-1.1494532194816336,-0.19389349733108446,-0.5299508147831782,-0.3634634058345408,1.4455582519972088,-0.21064339366370727,-1.3776580596799726,-0.4318877934535238,-0.33924060947928114,-2.4345014409064256,2.4516997990913088,0.36244061803711536,0.08810744298908585,1875.6370924059106,1067.5089162007366,0.6479261528903,Butterfly
-0.317438554837682,-0.7956788416705864,-1.3234254267632044,-0.47072392225150683,-0.22692243354181574,-0.4121066726936051,0.022898460474464498,-0.11606707924568499,-0.06846613357016398,1.0411560400300823,-0.9894092520207243,-1.2883581851056725,0.41540661299509846,-0.13167175980248472,0.5824648248852188,0.6624565916340586,-0.9351457691710426,2.1991238053449407,0.004565378070281253,-0.365031578615258,0.897165049023008,1.0707563304011511,-0.46940608407740564,-0.5737551546925683,0.7172562773889843,0.1916841410618354,-0.803163991952889,-0.9378081496273637,-0.3297783555168877,1.3363440871579237,-2.0028902193073344,0.06916305673551187,-0.5803631331891257,0.6734873528960097,0.21206345968717974,-0.32542171783078166,1.1222208091415118,0.19505505591343908,1.7011270547846158,0.28740324031137865,0.2525005449456312,-0.6789328777082991,-1.2883465742504276,-0.08864552054524716,0.398042597957676,0.3144842729039692,2.2931872301970317,1.0078667731494577,-1.1115502374565345,1.4997630632113002,-0.8823012013875402,0.6848882199330435,-0.045739387942477054,0.6990119372196502,-0.2733871663504525,-0.12474292673669202,1.891325683819354,0.7948091118154059,0.8136857064908337,-0.9138518747645236,419.57554381468,403.5368038054712,0.5884516136464798,Freestyle
0.1353489724560487,-0.7470917207664545,0.3049566970090702,1.2236541553689124,1.048959498198562,1.4497037829678219,1.4479675541882249,0.2612806935229358,0.3679268250947688,0.4085571519249339,-1.9135746230952877,-1.1427702328617195,0.39018863732990444,-0.4655453538295245,2.152538702306616,-0.074457890340829,-1.0861951227318924,0.25748340921463125,0.8443993651855246,-0.6320937104324345,-2.233624757460836,1.0872227263613028,0.3599843285916614,0.401433770143788,-1.4966500470751458,1.5375924473936775,-0.4353428249366305,0.01718473915649832,-0.6846708925942735,0.37089878210489424,1.3573701462433556,0.4212294078132234,0.47084764598243783,0.2293829054549234,0.9634402488072302,1.1313609323614504,1.4321834340317687,-0.011309169959864751,0.12492842038368157,-0.1421394151770632,0.8619821801286605,-0.5808679505640497,-0.04128298769902866,-0.7312111805934938,-0.8956452157322214,-0.6945657300598964,2.020093348509048,1.5082045154066208,1.599804338717268,1.577597880630062,0.9940386385582123,0.5795139891438107,0.8444976412683571,0.5351218893834951,1.9135729221997893,0.3290085787355961,0.8791621311699687,2.7435881581996133,-0.5254684225598534,-0.6544514783834956,1129.3582605509202,465.57507087162134,0.12764924820922904,Backstroke
-1.5520985727269712,0.7837865452929482,0.4362707705890136,-1.5502154648460704,-0.9683219148586013,0.15601927022904954,2.442740723589768,1.490757461078476,0.4443504071164504,-1.2541194953032948,1.4481450514496443,1.359703018406576,1.482252262014753,0.46853208207996516,0.5000000286319226,0.22865093375864512,-0.625692295722023,1.8455904669324241,1.8394861217555158,-1.7485911044143103,-0.3867456348700648,2.411069143821734,0.2094863935136325,0.729878516293522,-2.2256458423093926,1.2400636400986622,0.309722283578257,-0.02165033319382703,-0.510177039127226,2.144974156930212,0.3383023504323538,-0.6526815091535068,1.6345869717164807,0.7256761722274312,-1.0196705292551704,0.40770926828374154,1.0638055684607433,0.8240741639401279,-0.18014009071744636,-1.242310243337505,1.0815105998268941,-0.15099392645165932,0.011585311342312304,1.4398160674806955,-0.8315963311437573,0.949904236698498,0.45807393169648636,-0.19837581937959825,-0.1221339575809916,0.5731367350578813,0.1370016672557824,-1.2001873721949898,1.5370693870849974,1.8569355399575336,1.181748105176405,0.3388596063873827,0.7692125910872296,0.25203865392256086,0.29913595123458214,0.5346827684998163,424.5539270976028,344.97715785723653,0.5359477555580634,Front Crawl
-0.15581694176768784,0.35109183741429373,0.9057510374984181,-1.5715712121995455,1.768110556755782,0.9992295337201191,0.6650707541680891,0.6282293382164461,-0.19283505973192994,0.6056413783882106,-0.6034938100632818,1.539605595793079,-1.3600612621525996,-0.17565192811869554,-1.6177956340381678,-0.0741816928492913,-0.8597760624662398,-0.583207492714508,-0.27045217558523504,0.6974659478735772,1.0248361632275083,-1.8017224162041439,-0.1112456712761524,-0.8825388728767961,0.06443745306249782,-1.3005903497375442,-2.37632092192001,-0.4650881714743891,0.42449902394263805,-2.579759969152779,1.8066856356047358,0.31342061457720494,-1.1141922402475433,-0.9734307796513004,-0.6581078830863488,-1.894732468679082,-0.1612309049597471,-2.5322603254463205,-0.019329558451429057,-0.7423784042519508,1.0713255073247665,-0.09014672348388122,-0.13334857367081565,-0.6884243567514545,-1.0667318706620925,-0.26724474599566733,-0.9610179602475831,0.7036777200437341,-1.6344389317184296,-0.48878213014797584,0.46206192102854715,0.32935665610529896,-1.23035574428567,-2.6866548791567673,-1.417448956313032,-0.8848489373652083,0.33175146791315535,0.10245370841795348,-0.09819234126450851,0.5993406228892444,110.96533696694864,411.76445776656567,0.504494056337584,Butterfly
0.9987577724105066,-1.1538792895808747,-1.8352546226077653,-0.4781151817156397,-1.0091833874594442,0.2576127650330521,-0.04379387319190983,0.17541498461189248,0.5430218866509193,-0.6566012322434449,0.6253557474700663,-0.9172457662309931,-0.6908449265353551,-0.38060062312335374,-0.8810003802202749,0.6059892254411526,-0.3081532448527331,-0.2159944119177034,1.5633439002663554,0.4963097873563196,0.13603855938924353,-0.019056662388400147,-0.07161605944017113,2.0702561282853775,-1.2298250266393205,-0.06443971700536749,0.7575764367314093,-1.2978555781001888,-1.6048934741829728,-0.2595663111842877,0.48468061845019517,-2.198298906879591,0.7104954819805551,0.062099079256772216,0.525875207423302,-1.5834161904124773,-0.38506601661139833,-0.5104754142083654,-1.9082709439812438,0.11635943422332135,0.857198783759151,1.0587688618572846,0.6981705914757409,-1.5491837683982557,-0.8326628029700582,-1.4756579898344748,-0.1817259584494002,-0.6594631232771763,-0.3985757163955521,-0.5813577682382174,-0.273591558892491,1.8692872400140992,-1.0775442800292363,-1.0509623622532454,-1.1972497499614074,-0.42948780268597964,-0.4073451012317477,0.17297180848083066,1.5182510477760027,-0.9887332797497365,1870.024486397978,234.95536679759812,0.5004899485901388,Butterfly
-0.8865678595905904,-0.06022863056312111,0.23075254853490418,-0.5523348374668184,0.19125060324340676,0.07249154095184271,0.6325305497689186,-0.38234072840019334,0.17074267203707114,-1.2030133395614653,1.27645217088882,1.2031092236552356,1.9108480803672798,-1.0789888107966088,1.2183634651575121,2.12794120579788,-0.5976401227997798,1.1442641632988408,0.6062748242109769,-0.6048541107073604,0.6073488230248302,-0.7367664159395406,0.7733606243723312,-1.3225834493087159,-0.36574843924584316,-0.9227932898748219,0.33013744858526534,0.23750458442666278,-0.2929626791412606,-0.9116024799508433,2.261437710197959,1.5401054492253472,1.465552297053556,1.2592468389652964,-0.3542660790477093,-1.5283555111602884,-0.9344437561503289,0.16443506127699514,0.14197787427469769,0.08610224649745052,1.7052690253714942,0.03491790626985575,-0.7572160088393389,-0.12124393553929258,0.35586778100393746,-0.03591690150991794,0.07446181925341838,-0.5678992797034541,1.9910672115080306,-0.5298348682253737,0.17181154283522168,1.5024951439224439,0.2815073355352602,1.8648178152747756,0.44191939485131587,-0.3599608273253971,-1.1172935271698707,-1.1176908132999792,1.0908771392295475,-1.3414670025417224,1481.8655593537803,341.0455823260027,0.46415290268869347,Front Crawl
0.08640093868987231,-2.108242662112535,-1.335235291142143,-0.5438668974735879,-1.4099894396932418,0.537669309614295,0.0060437593982580196,0.20595790628661287,1.4943763934256975,-2.75731501116164,-1.3309702299310213,0.5465263533976784,-1.324605523091488,-0.4060194988093462,0.7486896373046634,-0.987785120469242,-2.391726321770312,-1.3522146017913539,0.43950331137496357,0.43166805674628184,0.3141471371396609,1.3024401403063415,-1.5087309469687764,-1.7030590753193526,0.6266286506014698,-0.09294799048066335,-0.15694219955741665,1.3200086137263065,0.5971948739556852,-1.17808791969598,-0.8939863547683183,-0.06247052919715654,-0.0741674710711567,0.5724081102211829,-0.7832110416814878,0.06715463081262946,-1.502105447087924,-0.08896495020424738,-0.45892053259344634,-0.30175165439083407,-0.45195342034943053,0.17891365592609587,-0.6578724633654283,0.7591013763650711,0.9396678037222066,-0.5882885895055541,1.2840652792318208,0.09371586131796455,-1.1226566411933483,-0.3812448509639701,1.8431821658668759,-0.8002486743132887,0.5967391751679041,-0.1515202247210404,1.1897718088491638,-0.20479322535689626,-0.3892536554484271,0.16906883566079733,-0.9026783068420401,-0.62476524508176,457.74437271253277,1073.3327288268722,0.7463821207906082,Butterfly
-0.9158234772964378,-0.4943399501826941,0.5054960442082751,-1.2637503194065218,-1.2981590116406168,0.7940584645271217,0.01851841527332736,-1.360784095352687,0.04447993896684609,0.9034142970324087,-0.9308141947451899,-0.09151869511147871,-0.03445813279777493,-0.5791918722340145,-0.31060144971177517,0.05257472092373833,-2.5693053802671324,-0.10255021836669004,1.0530851019348697,-1.0247872996496392,-0.9589304098020919,-0.5526287666428061,0.5093653016081531,-1.5993341792946245,0.6242222784418968,-0.7521922937647522,-0.5393184044997201,-0.5008910391753524,-1.360351354010711,-0.6555803414215615,0.3624199464510202,0.3632364761474959,-1.2289782782939684,1.0944762753897994,1.0154540475660188,0.14699941621787982,-0.5939909240547055,0.04844997397964213,-0.17124829940729197,-0.1078205030965852,-1.1559091907593633,-0.9231194618405613,1.3105002295044192,-0.14917378320628685,0.628209562789427,1.0576379169999452,2.5211858398258435,0.8333669301285226,-0.6097978566974142,1.2303864765998187,-0.9857195523866651,-0.2861783050806155,-1.8423578490710404,0.5444410810545441,-0.3404015467809712,1.7441961886073618,-2.855100159362345,0.23368996316260363,-1.245454321470713,0.6107331383301934,499.45043223053733,1022.3360565981203,0.2465522795525276,Freestyle
-0.8219120236796769,0.24898190070234563,0.6272165364561262,0.06431348592150771,-1.024428409077624,0.32191000449121365,2.0151708315063805,-0.773675549392598,-1.8534668826002696,-1.009918066111571,1.5946868894504331,1.1858168816042245,0.481330605707724,-0.3664814989123312,1.6543008150594143,-1.6344169826529418,-0.02684084125096052,0.7568023437867943,0.5697465791446734,-0.45712910473438495,0.06403052485156993,0.8585022289583798,-1.6626343157750514,-0.14610880420420488,-1.3773109429537909,-1.0200080081705638,0.5390642183839783,0.08021841224977971,-1.1872706013146532,0.7725801001539114,-1.4241496028590923,0.37661836192860887,1.156913864421973,2.9657028566802,-0.8899508574214081,-0.022182339353748498,0.05324890829817902,0.08471412611724685,1.0704056166194504,-0.6448377390427291,-0.258084739109605,0.7274366197443427,0.6324195639034028,-0.5427285348051019,1.1127146279241393,-0.2669692556253029,0.1269911197194987,-1.1557699331927402,0.41536969126263756,-0.8411447511301368,0.3321227247621521,1.6360514249908875,-0.013471184116084445,-0.9973389870356592,-1.482954493002704,1.0754651540731655,1.5731583849502284,-0.05507326010214672,-0.626139836628338,0.1831864819137822,184.1695630337091,846.6631748065284,0.5441318571919121,Breaststroke
1.7773936341700352,1.1249378896141027,1.5871702425080878,0.15076691482001128,-0.670523217664255,-1.9923013746251834,-0.4490533743164325,1.7314626509552495,0.9383103581437318,-0.9438447712985012,0.22993485020639842,0.13637781972343607,0.382698555324821,1.0321532231910995,-0.05396763788743042,1.781441923890553,-0.8290215367210461,0.0869660468118369,-0.5017068218587586,-0.23027978277523437,0.7717338230953773,-0.1493384621023598,-2.494363336755826,0.7729548525222534,0.819727313564937,0.6581124690113471,0.13858090990738686,0.5222083740244792,-1.3950952817996765,-0.10666653789060154,0.022678681325306815,-0.14144919030745423,1.215991415650324,-0.16681386397102405,0.7334507981634089,0.4172460701756545,0.6734675522400085,0.7320842671356088,-0.9502062442876178,0.24373887918305037,3.2253664091516603,-0.07143873256830263,-0.6621543039649449,0.2968259895509673,0.7054370998190338,-0.43720661601768446,1.0488046368717332,-1.4812851560472062,1.7144364285085656,-1.0356978178871783,1.084733112059994,-0.8293895744799831,1.954548275818246,-0.7775137185522372,0.5454556117060453,3.4153791434810707,-0.4219327240973499,0.12257561113605459,0.35122443547786264,-0.39842633736585914,1138.2251223441547,570.7478015899472,0.5642092771929835,Backstroke
-0.692557820111825,-0.8630470816913138,-0.6850294543083745,0.39919049423303277,-0.5642570241548305,-1.1325604907643978,1.0049058282426995,1.1519926847411217,0.24209680525978186,0.4894028303859915,-0.8102875371187038,0.36753414531902506,0.9994175066197203,-0.8245143392458585,0.31197699186362093,-0.10615055413197044,-2.1553546613720247,-0.6330740716802437,0.9330550411026061,-0.4275909137531423,-0.04291993777748741,0.2702652109479785,1.822462978332242,-0.48045789350703605,-0.4502129704508533,-0.8757541792545885,1.0761347347048116,-0.545648559616014,-1.0455529897503044,-1.2915707382300292,1.2845861175116673,1.1211551487403297,0.3983848401193082,1.6554267468970454,-0.00018683006388942047,-0.908969842528113,-0.6650335209378938,1.7812363928590265,-0.18870760933777178,-0.9576450286997615,-0.19337467114669699,-0.3540730816981174,-0.2642000278357425,-2.5556174799508247,-0.5693071414744624,-2.09400277037589,1.7622891332303425,0.013834658979510694,-1.1385537639620427,0.765630188301295,0.9703435088565603,0.11256557876069598,0.10039022641122272,1.0529801046785532,-0.47056750796693525,0.04564209525282839,0.08881436278613017,-0.21135147649371172,-0.4226821687228183,0.2179482016904901,1795.6694067900667,1022.9991144168087,0.3265244671866713,Breaststroke
0.7622124890106247,1.3518548605275198,1.2272264856887904,0.5003995004802925,-0.6789650287637408,1.6841058465059235,0.17414305729942625,0.7374846993353759,0.33254503176192435,1.1057915963088538,-0.745173294904216,-0.9537698833426589,1.825678168841895,0.07876751700045734,0.7342832501386858,0.00032247022368736555,0.924941300679053,1.4152280869092426,-0.07408259220567215,0.9461799447565329,-0.09363293835668901,0.19148307145314758,-0.6388394384872207,0.7699752519402727,0.7170914148586537,-0.4946842115381062,-1.4109118781939065,0.5782642483313889,-0.22245376549670753,0.9597239295069346,0.25947258237065896,-0.42521501893231733,0.24761130710540924,0.5956416360299942,1.187585711518063,0.46836697422928986,-1.0036302772664034,0.9996745391711821,-0.31621438672257346,0.3990023755932235,-1.5128322878016254,0.37907996115868753,0.7155160031264288,3.159834776679512,-1.0861695982567077,-0.2340044051268521,0.7789231752753616,1.9056484054440483,-0.4499525465721385,-0.12933186841244637,-0.7309645680130321,-0.3613094243935486,0.8660731127464634,0.23958449821129937,2.322218654976296,1.6555820229603828,-1.0742118899208435,1.8692252699766734,-0.6154862926648943,-0.403085878199729,611.3338413928701,485.4744311090996,0.5275012661616286,Backstroke
-2.0212181160609872,-1.6656919215134716,1.2109015874770532,0.05669007249602351,0.5455524212942098,-1.4059458554352657,-1.6304191701387238,-2.079353721376658,-0.40957131562114457,-0.9371029985946293,-0.2914557804011121,-1.3610296301510723,0.32966432027916925,0.39120496694148865,-1.4804701931955158,-0.09777394025529323,1.3951810351485516,1.2511154955258894,0.15168871967243638,-0.5518741005335785,-0.19808619822995097,-0.16378480372692808,-0.5980387496119607,0.30655714750827423,-0.17016126673691176,0.2016369434745213,-0.08673588600688434,-0.5308397882253622,-0.38726139677793797,-1.332380941001296,-0.38482926241291626,-1.1505841694391248,1.007382856162517,-0.5371462311018292,-0.21610006488000574,1.2826899706754677,-0.8165675741009791,-1.6711427686722404,-0.3657836606658861,0.006488599911000509,2.5654500622337686,-0.6755722647763033,0.7371785507145949,-0.20617549164514445,0.48122592908921247,1.0758824817990706,-1.000353401628712,-0.20948864719581425,-1.6914020235099751,-1.1999100042013453,0.30693013718682194,-0.6196612513960176,-0.046259464938829,3.0937406197073507,-0.9733304609191854,-0.3613363673697908,1.0530985097308052,-0.5870922026019986,-1.0266556367763662,-1.2481311248838316,889.6002782353075,338.9960799391436,0.3156471190181252,Breaststroke
1.8623175613948801,-1.2476277991437925,-1.6432469698554668,-1.4463073545301137,-0.782983895318375,0.8824611500658068,-0.1883177435865066,-1.20822152798315,-2.114619066459786,0.9126406596059781,1.5078944209782768,1.1690449647887804,1.3900627257574272,-0.26940228412243483,-0.1104919228656293,0.10276351199484657,-0.09445853876958991,1.5601332405589254,0.13285120863450234,-0.3396394586153743,-1.1401446060593403,0.3336311004081317,-1.8637302448779682,-0.3607635112792717,-1.5034634783153227,-1.4814974920078092,0.0423821808472616,0.41763055665131155,-0.9167284254682811,1.6720158351160896,-0.022164220525026486,0.14901054258678786,-0.8500654365818059,-0.007313747611439336,-0.7904967532747785,0.5681110384115649,-0.119284317645639,0.8241670862449483,0.8317866345162794,1.3979989206154584,0.2551391438850738,-1.092240422267929,0.3193726179282919,0.9635260816944609,-0.09428462277218425,0.5107736325817768,-0.1519458195600667,1.2581242757433737,-0.011446402474965848,-0.032248988864635654,-0.4143247072862514,0.40302665112056574,0.2888345155665181,0.14780645364740638,-1.0061397712942028,0.5946557480284083,0.02616769257615643,-0.23449126036430404,0.9154126803619287,1.4464110940543464,499.08147024583525,937.2890044600089,0.45484773024786124,Freestyle
0.602652446306499,0.7096618656378763,0.6123449200984505,0.49259155164487217,-0.8938154934519152,0.7064526567796688,-0.5467758337539146,-0.6794724286140688,-1.9468440622656753,2.0548929211131277,0.6854379817631263,0.5512052115734114,-0.928675464463819,2.60918598719949,2.3803295760667447,-0.7318394626587192,0.26844013141836437,-0.6749913099880899,1.144096365660758,0.7432272156568203,0.6141566649737153,0.9195077217644233,-0.4544549275369902,0.42740197998567275,-0.7131289315364158,-0.3220114032646439,0.311272916377226,-0.07050527256824447,-0.38220501311161775,-1.2910378077832299,0.1435566288542734,-1.3777803370983537,0.8571224686875722,0.9028315855202703,-0.6521955211074326,-1.1707851955712032,-1.5616803598016058,-0.1636157319835218,-0.12865728940981172,-0.7682423959489105,-0.7763708613190285,0.4732254065439075,0.4092924639969723,1.4946083040829168,0.7927518267186434,-0.8204364421345592,-0.04452826333046985,1.0658375439672074,0.2528586102571405,-0.39921450205724096,-0.013989275824220236,0.5885665004850179,0.6857055943760475,0.780847525219313,-0.44974096869208036,-0.17190671976268743,1.140765897148964,0.6616554461814345,-1.8917154505811846,1.1694061896401233,1774.2660060149908,143.829371803757,0.5585366985590446,Freestyle
-0.43249984265026165,1.4211212285632473,0.708511253780106,-0.580866401804442,-0.6429688641172687,-0.9757523615820294,0.32757731841765936,-0.42169903133871717,1.3975192204974811,1.096663270971097,-0.0682376536892059,-0.3924568759379192,-0.4075392347192921,-0.0011334990869452943,-1.1722668894186308,0.9379702204550553,0.026915897083507834,-0.8293160003287822,0.14306688352925923,-0.18829202329551223,-1.6853346521684356,-0.35931538088050463,-0.04320449673674981,-0.44644606073367965,-2.662107228181528,-1.7870386730786259,1.15365685587738,-1.6557614907258396,0.7296742539573033,-0.537312675396056,-0.10517257174991063,-0.8162960067121248,-0.5716925588284003,-0.6182545622584348,1.4058680219418667,-0.5855615413166747,-0.06704069050418898,-0.8357856812890472,-0.5245735436833228,0.4838176350046418,-1.3575443669780616,0.6753415682926892,0.18316099896167848,-1.3275632804859694,-0.8538324495430377,-0.37832505333402133,-1.0122723227604844,0.6103791935772941,0.6673482444622469,-0.2633502965436209,-0.628846212600235,-0.7327074970550919,-1.0412005163421703,0.8048415530011805,-1.240177414860371,2.002910081025207,0.8741524904250277,0.15466284126795382,0.9831837946279465,-1.1749639810262285,1849.1955254974805,817.4845240801804,0.4183208441699297,Butterfly
0.7755465099998948,0.6934319881836954,-0.05872638638743738,0.033401692350382206,1.1928388786962945,-1.7952316271167246,0.29130022265857075,-1.050411150505963,-0.38550260309938694,1.3910570951969556,1.7885209435910485,2.107845200964475,2.605191179927027,-1.041897032275837,0.825157577284154,0.8447397289052259,-2.1131501439964895,-0.2715799907308896,-1.186160505491837,-0.39178799445909523,-0.6162592460063889,1.0913619356926654,0.44277835461749804,-0.20902377676919087,0.38517380771283527,-1.155021864038198,-1.163799921524756,-1.599054073192593,0.5339238310392225,2.124407516903931,1.53306175907242,0.46077247813349836,-1.476442512083381,-1.7599299407191076,-0.3336282438928581,-0.42901636018821016,1.8120983125641654,-1.2622827984724108,-2.1493079029496647,1.0470975554431747,0.4081907476609786,-1.1166300220340644,0.24460980266513838,-1.082813225640035,1.833835955629013,0.329234862183271,0.2098992270309985,0.008072542736188515,0.6331997037214123,0.6234607373598078,-0.26806447980585757,1.0707370301178907,-1.1343976653762953,0.6928291026589153,0.5691274493342902,0.19064574560342482,-1.4940361795145962,0.5652866864668508,0.23015956780387914,0.707519389137238,927.4898081358167,216.6107253853479,0.6477482973791239,Front Crawl
-1.5598194289478102,-0.19034238653401242,-1.3607735775251084,0.8982643763908097,0.06487617361039921,-0.7189125979479266,-1.1720268636479687,-0.3963137235822318,0.8156204275522084,0.1641291221325301,1.2457751649705067,1.7473156718320726,1.7929304211713977,-0.9893027430764312,-1.3043825626278083,0.6341703447973206,0.738652607194921,0.568520585314237,1.9416567580639166,0.09064173463907596,0.5317850268076677,0.8878337994755844,-1.3567795520617676,-0.6485090021368227,0.24689808609813432,1.0207057151411838,-1.5445672438526346,-2.28795186799206,1.984412613905938,-0.47461399674745564,-0.8710432965388736,0.5850505330611431,-1.154603754690008,0.6897423635738008,-0.7489844598021578,0.7309947280332928,-0.9532700892698461,-0.45858233675202387,0.6345407231098229,-0.4002308322721979,0.6701010002238607,0.11677508121630739,-1.7329664714946886,1.4408818185681942,1.4882351558850564,1.468461620929937,-1.7064216692624434,-0.8319283798710169,-0.03947615302343668,0.13688288895139275,1.456413312162487,0.5819910182233351,0.42858616899663704,0.6624757501890489,-0.40583829156975526,-0.7061147143091835,-0.38986469710456806,-0.23953621852899876,-0.9825099679417605,-1.514504535823212,420.796091925642,673.2432784132131,0.6254082941024935,Breaststroke
1.382530741752657,-1.9951837465222086,1.1429557561096633,-0.5194355565168951,0.10031047011253014,2.2780150436330113,1.6710079134897153,1.9672952381553557,-1.4030332732404618,-0.24371820552892226,0.5341222107225243,0.6391679997601336,-1.0769392173225685,-0.7399347885873346,-0.7326891751387228,-0.4800096253014871,1.4398817684438883,-0.9967978089020488,1.034933851866172,1.1926619986187068,0.49025640153141714,-0.21710741196090638,-0.2436508277136059,0.4330449741120397,-0.5044246772140828,-0.21635204548948161,-0.15306717282198617,-0.21015336990135303,-0.4730099931648463,0.6236356207981959,-0.0067123652065377015,0.16258196490021934,0.6039271576653642,0.427480571755703,-0.26166643302441117,-0.8580179271350232,2.319282879463013,0.3836791832888161,-1.423164378622339,-0.4669592040405595,0.9456782868307945,0.4517014197514673,-0.3030782979590892,-0.6221022941249927,-0.6720928002203099,0.2550312623974875,-1.813568088051669,0.31252905131891406,0.46573226113727784,0.5794729204433784,1.269300319336334,0.9739509444324943,0.24276395538848958,1.5190866279711348,1.2066213091803064,0.5451950110312276,-0.2221444622756324,-0.9174339405283807,0.2260609672783606,1.6460997494170966,1494.9917800563676,859.0256837256653,0.3787764313856138,Front Crawl
-0.02398477549643019,-1.7224470560434793,-0.8995088275577567,1.6511843284590006,-1.133044769968679,-0.5632772922093545,1.3901340044757244,0.7008358768586728,-0.7468582953682656,0.24411394710324397,3.0761196575361343,-1.1556551182332127,0.28723759149120226,-0.5250262863490305,-1.11428773710583,-0.4341137290144423,2.1367991795933583,-0.8403363045550829,-0.250492605513347,1.3559165300699738,-0.18415025501384397,2.185192353230154,0.6687555584814641,1.5177911341606685,0.18429069238032542,-0.4172403428000519,-1.5925136110296518,1.130682881932054,-0.1491938485288265,0.1904723387128426,0.3979363557580048,-0.6042686136145083,0.5221935249724264,-0.21903152361577122,0.02938888845269494,0.4807995570362432,-0.40456527290333705,1.0357093400746225,-0.17075148638832732,1.6364346483981196,1.2699311629616645,-0.04327254485904575,1.5370355257511594,-0.09516449020791146,0.6290807108283598,-0.18142907376172973,0.20751224182184114,-0.8821594081364377,0.9029699305414416,0.3579904882096092,-1.0394928899772113,0.5159039845471278,2.1737382547820516,0.2677642426291817,2.868704465457924,-0.11214957519641389,-0.6630971933172478,-0.919489851758013,1.2542300887637656,0.9414635355447647,1366.3742899501099,534.4777478838095,0.5823930134801594,Backstroke
-0.3540695150484347,-0.02059046310413104,-0.3283514345109023,1.2944752993730932,-1.2927084598637093,-0.9442573445992705,1.4360555320964015,0.06882662896103645,0.5286409468817157,0.29074160366276214,-0.39742315559350855,-0.261598988000336,-0.013925373476607605,0.3869781182194182,0.7910709738299552,-0.2635507156041712,-0.5876198106955306,-0.864338102016471,-1.2872991929197732,-1.4746284805533711,-1.862462350634433,0.5951806884290515,0.08854873729028592,-1.3550314799174923,-1.1240655653337925,0.7009437524805515,2.1565494941403336,-0.8800629959283629,0.004173010620093953,-0.1513222662260298,-1.0534897140494341,-0.4872026397624296,0.29325807653609914,-1.4109526179157916,-0.5581103322936821,-0.49416398357202906,-0.3729158013515033,-1.265785331315996,-1.006421319500716,-1.4506779253993884,-1.5735851376351009,-0.49797984487470326,0.7118794483174675,-0.9151693324676538,-1.7199615242282245,0.24725108480198868,-0.40212382823675497,0.6625718449204684,-1.3264819285048566,-2.010540458041499,-0.377180210739961,1.3481895732523108,-1.5541142120161024,-0.7166021560423327,-0.439148865200196,1.993023674386449,0.6581562141013462,0.13646649807593195,0.10677054308982861,0.06228928928270677,328.78488687948726,247.33718066833478,0.6457564642221523,Breaststroke
-0.7416556149654845,-0.6080626695711746,-0.290124057803329,0.502784437364372,-1.5284099400396236,-1.2475824103098268,-0.01303533593188369,-1.2675554190184881,-0.352501035698633,-1.5075119586549002,0.8480284971591932,-1.082581829995767,0.16652570475073714,-1.3565094563007638,-1.121387608629096,0.5499578897940776,-1.3851205140823268,-1.1882225372182782,0.6992694475501682,-1.5245440392419776,-0.2961326865516316,-0.6814165411734416,-0.12174534326370653,-0.7302991834745011,1.0063994762972706,1.3659931773436842,0.6834184394994771,-0.4969059315818295,-0.7644722879310553,-1.0684886710681432,-0.6967157388702271,-0.9180610199142533,-0.6170522230423359,0.15680463072756085,0.3146451142665413,-1.0287705701607774,0.23323756042035193,-0.6803820915585013,-2.531270585605724,-1.0629422843194394,-1.3575838841062173,0.837176470470931,-0.2651357784472248,-3.2540565931038974,-1.0702424463168616,0.43194079569785593,1.508094563347579,-0.6714815452753174,0.010114990892175657,-0.2493524716560111,-0.33124375219830526,-1.2485561713029032,0.6721669691219405,0.7338521568027521,-1.5928638179334675,0.16318017630503884,-0.287808498844159,-0.8247067116034559,-0.840932910930889,-1.6008247628834458,1739.5581315832317,547.6718531443147,0.32572442596605233,Butterfly
-0.7306514027455847,-1.2558351821521179,0.5655380517039994,-1.1306208107674218,1.1568512236723467,1.0647844765495196,-0.18573306828069044,-1.788984786712507,0.38766717198937894,-0.9193819076064598,-0.5429966050421272,-0.060486409187040305,1.12404266170917,-0.4812057563352282,1.1174941456650997,0.3516958024728274,1.208557520061708,0.7343603051246331,-1.169066313080854,0.8490842030920422,-0.7801762440550163,0.46402326116512016,0.6104265793567134,0.012666553780277728,-1.4359547314954815,0.10163087491221903,0.3672533207266827,-0.8038326506142737,-0.17658868985445839,0.3031924465810518,0.6164231068126267,-0.24765026070937368,0.0610248630099523,1.1409605324965157,-0.04837855423211179,0.05661637904637298,-0.19630730967266571,-0.6594541473632525,-0.011033630841086078,-1.2221054250184442,-0.09204399412269244,2.0352804955969077,-0.3933332833480533,-0.38226139841635204,-1.0235718623456276,0.6587763506851582,-0.6507724973881239,-0.3282662277871302,-1.8056798930759093,-1.524145773686579,1.2560611027872357,0.026495791925343765,-1.1322544573047917,1.4768777651506235,-0.628778226778712,1.9963822557292135,0.08116667615694692,0.12473033748120002,-0.6145070073180734,0.9329627247691673,1799.1111505081105,582.1908972444464,0.8050364042162657,Breaststroke
0.5446706116284086,-0.08446741916994928,-0.7766315595125326,-2.3362932456269316,0.38056312313164753,-0.39291571162510636,0.553560482618621,-1.3781964255430381,-0.16363256592980768,-1.5777501429825844,0.7528484364194212,-1.086297166577534,1.6891590829377738,0.9927469082606831,-0.6813201294400655,-0.9276846409322652,0.3489103925272523,0.6669719737921174,0.6507168725158265,-0.4375194490533354,0.33041728258667524,0.8884256257077748,-0.25899011679687045,1.6068597512186507,-0.46103297864432513,0.8707203871447554,0.6328924283227234,-0.9849735827811585,-2.0676819092654317,1.1773343597420518,-0.9741013741681368,-0.7702550342170658,0.4754685879128573,-1.046634477609054,-0.7402146003954418,-0.37226982076924864,-1.8453175764310636,-0.7334647660748499,-0.5718262220484692,-0.8255833007322381,1.0524489101537982,1.1659498731687243,-0.891762024747249,-0.22995263832657376,-0.7536746212889033,0.6394599364041199,0.13364332565767587,-0.3639644549321921,0.9975692983606798,-0.9548606626504645,-1.2648940565849758,-0.5060850691995127,0.05842917345433846,-0.8637235905347439,-0.9068912617705949,0.158644722746803,-0.3458273975783156,-0.09453239726559201,-0.3841494251608649,0.17906059338506644,244.77315656661207,686.9269532533058,0.21121533920177946,Breaststroke
0.10590685010422288,-0.03486863249219041,-0.834583688827855,0.9288349142599409,-1.011620508924194,-0.775906228949139,-0.7274750209209021,-1.82938914804101,-0.3576719640066086,0.08518662229141291,-0.3983871835647762,-1.346225924426605,-0.11258382440492595,-0.6697721545522586,-0.02200073904742672,0.517761066701399,0.7246637074596071,-0.6316812313465858,0.9190828580269409,-2.35000593950157,-0.6666241571565156,0.4396791256815368,1.2422488385276123,0.28169179800927924,-1.448273008539612,-0.7016234564923309,1.121022807521027,2.052601811362576,-0.5206955962151029,-2.0920905165218624,2.623769567025424,-1.127309184090117,2.209938367618952,0.13199569223416338,0.5725437911842156,0.5935701685012245,0.10028616397951881,-1.6860829602308878,0.36342632133322583,-0.3856512085429897,-0.514244299690566,0.40741174100006194,-1.0143509166912432,0.9143918687097782,-0.42235418954044823,2.036810780693664,-0.5882280589716503,-0.9510491792078613,1.6593787515763712,-0.9399533267381195,-0.8020958340314513,0.20008851435290606,0.5117643236627397,1.544175422749625,0.5326702262495877,0.16181237786841865,-0.010104370429337095,1.3273919870809714,0.30280241281645237,0.3659325192385052,229.4947988535701,337.38707610671395,0.49168817044279534,Breaststroke
0.95174814140304,1.2444158685402726,0.3989154787631109,0.41138506133107966,-0.2643716438256554,1.713474017195351,0.4300595547198361,0.37503526224150907,-0.3800438281748903,0.3830539223955369,0.7613683159170215,-1.9626132437255526,1.421985796630402,0.9714865628096327,0.7113808269688882,-0.6721209238266372,-0.34707635843112555,0.10613328770686425,-0.34976765640979485,-0.4299016621789841,-1.4506668650175705,0.5018727599023897,0.0068531213954072245,-0.5127049532317698,0.5348238129769367,0.35438126070911435,-0.31465210560197493,-0.49806695435360065,1.1777248497595092,-0.6243424275050795,1.9366140079422605,-0.8018124975434069,-0.09213315906459812,2.513450780548827,0.5816828937500682,-0.18870484486918193,0.3777481929606057,-0.7763718462671376,0.8444717161250734,1.7833438540072375,-1.9219505576132911,1.497663037071434,1.2476352199746736,-0.15981825235756114,-0.4775191656325109,-0.8635795586845845,-1.551495207185952,-0.2654785766935908,-0.27776360404724215,0.7867752501682537,-0.4119778593129872,1.4141194442158622,0.2987791337866303,-0.8540986235202508,0.862818401665155,0.6441177583735493,-0.1660809921345131,-0.06997695227115663,-1.3088952063514976,1.474864100433807,1677.8279567760628,485.59575652798907,0.42144899414006276,Backstroke
0.29120531051442855,0.43660228301270076,1.3063904776197492,-0.4451974708214624,-0.5252901762373339,0.8794940879355369,0.12432210067863475,0.6838858044073592,-0.8940026559300007,-0.3527086654686133,2.6901359098825512,0.46725731350097,0.9481960831061857,-1.3829702538103308,-1.3168763229347646,-0.36161908483207356,0.5715624167258087,-2.2397331710969444,-0.43898679745276276,-0.13904196382949185,-1.0837317935527346,-3.151370410453978,0.9945184363459445,-0.6238976387701423,1.3382005905451142,0.30732709488685056,-0.06101539107515236,-1.0522301427638747,2.2036730736519567,-0.2526236146554189,0.4769170262216493,-1.5383351947760076,1.3247352916359887,1.2487921414938459,1.6269326039144845,-0.8833519282691509,0.037143450782830933,-0.01536206925321415,0.9151417093579639,-0.12116015780540262,1.2172804317746853,0.788179716323373,-0.016440764360946325,-0.3210517834992251,0.4534790386355244,0.21403961624517323,0.23445771568525203,0.6559137892096404,0.6215527346540843,-1.573352494932239,-1.6338904106488796,-0.9996862473165729,0.40093427783808605,0.355983064415423,0.8710944624250814,0.6405808104361848,1.4263264074074107,0.9728713758535676,-0.24161379382039044,0.8993321703965342,533.1716865737989,518.6897282493317,0.3346974038935372,Backstroke
0.813199811077181,1.5283943683343846,2.587450000653147,1.4735623437556027,-0.5858612163807086,-0.6192902417102595,-1.1610343171899207,-0.6652899528193466,1.7027012897324987,1.120499205379741,1.2518518013812745,-1.9987631167790927,0.27886922198873504,-0.07061505412399205,0.5036492502600739,0.4577233576337001,-0.7533999194178278,-0.1574276729451512,-0.17021738578216794,-0.012569417260544391,-0.1269945322367027,-0.6673550260904815,1.0301197128449686,1.2850950961282672,-1.7759837529011102,0.6238471209201353,0.6422734762860909,-0.594947774742659,1.7487890260383256,-0.5873047187614078,0.8756251666566774,1.3812729731427684,0.9465919612806137,0.304759637850528,0.6163823073296403,0.09264586428215668,0.3716889181402041,0.9145576767997894,0.8070380857516177,2.4034032940955,-2.4047561105848136,-0.37111262556147323,0.5953743235407235,0.8305978234538038,-1.2304055595394565,0.33191667616756176,0.5108047680363854,-0.8618205243776575,1.1153515341676592,0.015556673971126533,-1.622370754848866,0.3058834876670783,0.1673486593123083,-1.2259005202714828,0.19721576004409724,1.038035450439403,0.6301245956490711,-0.8908364765427663,0.2216889681409115,-0.9465013505895952,941.8401709737067,289.57459678168095,0.40427396896097256,Backstroke
-0.21884874392503834,0.20799402954881338,-1.3074811997787745,-0.6615588808778095,0.6603010312161806,-1.0235839110617804,0.3274555048390724,0.3479193399091475,1.7673091061298811,-0.8446003659283086,0.6768411126898514,-0.1202406587511074,-1.4981581743647174,-0.685945387440795,0.5498977841868855,-0.9714732182752468,0.19476017929347836,1.4439535095632459,-0.7888801250587383,0.9649284335124741,0.30876688262584234,0.8785959000954287,-1.439152542818494,-0.11363170640161074,0.8540184389323957,1.1646348037484562,-0.3042336179704382,0.2747577121284153,0.32587936380160565,0.8426761207516884,0.9705373807301576,0.9157904965529668,0.32264776572315756,0.10416402731025025,0.07186707518707772,0.45005527919427774,0.6422463315019991,-0.04506293161521116,0.6930068622918976,1.1003772211150655,-0.23399852683194888,0.5777873598149806,2.606386231826411,1.0879253373707263,1.192842829462779,-1.0404972433803774,-0.3585692313501541,-0.9215476569801655,1.763267689701732,0.018960380783706016,0.4754013309172792,-0.34619547656706545,0.2396836477209723,-1.6525416432864344,-0.11949575808101431,0.7742019317643887,-1.3101763275851306,0.7606065034534613,0.1709629780968471,1.3288481508393717,945.5027576699647,633.8067389099501,0.5320537271089633,Front Crawl
1.9797318414095484,-0.3653349948073361,0.06534201778657811,-0.6741552582309427,-0.5375362207843132,0.9081699648799733,-0.6909668917433021,1.2189938162322835,-1.288702954744184,-0.9398347401772399,-1.0247027921783913,0.4443969732642945,0.7684736200390496,0.04977095659229863,0.8900169873052679,-1.2135285278168326,-0.5978876771237596,-0.7618199551739154,-0.020431442807010314,-1.179167821419422,-1.4138870319645171,-1.2372290224510842,0.1909043785512783,-1.4809099081614965,1.3815493835696415,-1.7195268192570634,-1.1775442999749832,-0.8234686128548594,0.23118763361600408,-0.8559854590239165,0.3100276500159551,-1.4785141030654627,-1.5513488746080137,-0.7177142154861171,-0.4535141881239586,0.360396030339621,-1.1367653961455755,-1.4598473737705722,0.7047653051984646,-0.7539341473212325,0.6008604260414744,-1.5806824128132053,-0.14843758518787736,-1.4270448648680492,-1.3128365223566891,-1.3220353932216324,-0.45886034350588595,-1.1381905546152224,-0.37473075122940425,0.43853614944678876,-0.9829520479261793,0.9468165857978601,-1.4763547729997464,-0.4777992035900439,0.697684743115382,-0.9228530938903009,-0.006249296486625561,0.5304224541134397,-0.6506451169086991,-1.0238406445582742,478.31771040877163,354.5893350525771,0.9093033127035528,Butterfly
-1.5679304164304986,1.0643121862471823,-1.0865350262342919,0.5248903643169941,2.0811677442974634,0.016788163741715875,-0.2425521640183039,1.957697342347237,-1.1040791020069483,0.7805264849125059,0.18822870450322624,-0.7220956872040591,0.6051937122186815,-1.0347781277086976,-0.9595033893998389,1.5521215472324952,2.34355394346269,-1.092510334774032,0.3722792915017174,0.9355323874310795,-0.7584851728673657,0.5138638547844343,-0.640139385409656,1.0138027644999374,0.12896444937597235,-0.890122985179981,-0.5295190492853608,0.2859263566306655,0.3305003265159562,0.0809584678201035,0.0954324285253791,0.6507631196890346,1.389873457976197,0.08250139443300719,0.14515200712047743,-0.18630667166221254,0.5358986765498233,-0.2748171888476982,0.35877609514121817,-0.49263734804938886,0.8191377469750065,-0.7309630451447922,-0.753447659790537,-1.9953721417096197,-0.1568103735989479,-0.21448489349505223,0.9364807608959742,0.04083174768937367,-0.6976795179820556,0.012442454481428979,0.2413228953447185,1.5775496876133088,-0.9246110057695375,0.49880321465336197,1.1080495324519428,0.12223404850660279,-0.16560307129277543,1.0672768079331774,0.09797826331446516,-0.31389873198867224,1055.24040270586,1057.9254740040274,0.6442617402190484,Freestyle
1.2609373235629844,-0.9784408800414345,1.0188112432067427,-1.1136028316148774,1.2503598245169982,-1.5490640198561128,0.36378494564995456,0.7704103507492184,-0.34777314242209234,0.9288157801261377,-1.008002501574517,-1.0848285129994713,0.3895892301133444,2.0696568802183926,-0.8170218474664793,1.3662659753556974,0.5486297102228435,1.3762250856794112,0.7274921359734977,0.2851324746660971,0.792473490155935,0.8847350935336388,-1.0088500871529196,0.30818459816111,-0.6747531614725396,-0.48527737584860314,0.38171234122825864,-0.7302938816215541,-0.5542972247879678,1.4911031408856743,2.751858582440611,0.042380500561872245,0.2488375594202532,-0.404522371205896,0.3670036811654005,0.8430364735871998,-0.6093123876536761,-1.2546787074620827,0.21451795029643206,0.19608306399142092,-1.5928670018321818,0.9521157287124277,0.8759179058520784,2.2213794643757274,-0.4248191802476149,-0.32153194202922264,-0.27899056933887884,-1.6367156394822642,0.47630982844865377,0.4588743835255341,-1.5993191344313615,-1.1497674305891714,-0.03420986228322607,-0.10988801512694032,1.8400983251260885,-0.1967157504548922,0.4898295350095527,-0.4259022441268593,-2.0139438398058016,-0.3451204175646518,450.71968147235503,775.4349537452463,0.41661763224781084,Freestyle
1.5679074507209707,3.0144474532661616,-0.7385445473092329,0.09051909039293263,1.5094803404667223,-1.583115686893549,1.4725331339866254,0.025159496041656598,0.540435014863152,-0.5957262027088432,1.086976348237032,0.1321530424412969,-0.7812659050146118,-1.4393848940848424,0.8595479624499589,2.489715881283293,-1.9520063178577127,-0.9144801912383731,-0.6333240926960657,-1.086540736361053,1.309644448330965,0.0873861049451684,-0.22442696659839717,-0.9941473815260571,0.16192408399740318,-0.770158518115307,1.1114567658661025,-0.38797310640654964,-0.759155882117055,-1.5948247890696825,-0.5183444408873636,-1.0919752998794654,-0.3908957734029112,-0.05739668395944486,0.1979477738303681,-1.1413119805173435,1.735331561756969,0.9300153267104696,0.032761600028981014,0.27631874305661563,1.1674678376451197,0.020527947419277326,1.2764211545456554,1.752456526083688,1.228818245888198,-0.2718782990556468,1.4691099597362614,-0.5425608273114086,1.5267628128705537,0.2281043907616704,-0.9333921741113806,0.8010908411977811,0.2562701709030931,2.071997406479224,1.2812997125870453,-0.2110836273974162,0.13788881335994724,1.0692730989234152,-1.594004314866676,-1.1342307057084626,1821.3949397359706,658.5629329833305,0.3917001009013227,Front Crawl
-0.8521588059655938,0.3752574781667358,-0.6746482181823238,1.0891371839133615,0.6713569749481262,-1.1160387151997586,-0.8487700905479784,0.7381042438762555,-0.18181820795666936,0.2320426047432404,0.8618776396898403,-0.8286055284755504,1.9591372732726449,1.1357811438787417,1.4123919752164193,0.4505729041273986,-0.001555425618620257,1.5460602142163689,0.8399593687415166,-0.3194736871107351,0.27691476536847703,-1.7646664925466742,0.1616883492495851,-1.3403274558492941,-0.5456179206414459,0.22980368406367546,-1.2708021463886876,-0.7073541114531405,0.24828026628848504,0.31699992883760275,-0.38699920869283194,-1.0505010255738938,-0.8843973572939886,-0.10522970860014474,-0.4407330561794593,0.9797327742922494,1.040147416723517,1.4846988535699157,0.2578136721910357,-1.164361498163134,1.438720098511952,-0.8194087934931605,-1.9428207757622704,-0.6837340086335719,-0.3282686971320197,-1.7515958343097964,0.21213287255099422,-2.347196078169018,0.08460516109743442,1.623591029860994,-0.4234578415195807,3.3360203892975253,-0.1025752694636718,-1.214578069628569,0.220003606650257,-1.4948747850302986,0.21820277404088362,1.4955831083411293,1.4181841508437174,-0.7802861543833853,149.83010144491718,747.7948679860145,0.15238338820597408,Freestyle
2.2292736105559734,0.3808292528376731,-0.5892708590639962,0.21111074362112997,-0.4226590705071891,-1.2394845881030299,-0.33655821512935696,1.3518099836779613,0.4995200652477213,-0.7788072407790315,-0.1796354459135899,0.18565792299237055,0.15247188244886165,0.8782770856042484,-0.5925025059941333,0.6447643562589721,0.3681709875598373,2.8879124953969044,-0.9876760491894904,0.49466708422755545,-0.28503693537754937,-0.7367519804312987,-1.5648976062947773,-2.1676385908801143,1.964299240185925,0.21735490768410898,-0.18975287963120194,-0.09140060957243062,-0.11012009492014371,-0.12273238699514763,0.07265834806875654,-0.1490485761075886,0.261002524878943,-1.5935270341713137,0.6266526947955934,0.5690794509020398,-0.9965968817669498,0.08128962552243861,0.5198323899285837,-0.7304052044559733,0.7243516020485784,-0.5947765198119406,1.2475454647915323,-0.3445696698758422,1.4583267731235061,-1.0783977926814834,1.0544867156645947,-1.6333875601652905,1.357436351465866,-0.5199883128442813,-1.484836416016592,0.21464869922090865,-1.0783766513142719,-0.0032255279826010723,-0.883161758900131,-1.2732034692636673,0.558101943864762,-0.4630069061413781,-0.05378478878012071,-1.1002648656927023,1297.8561363682563,235.21704530951473,0.6946592505562855,Freestyle
0.8454902829453181,0.37509597397259753,-0.2261989387198039,1.0974263368236807,0.44779088452958404,-2.1960769709014363,-0.9150826963598108,-2.157228137790559,-0.19924894761136563,-0.3473395335773042,1.513531986883709,-1.1828298655117702,-1.2913755754828777,0.15986115653000324,-1.3852036558529162,-0.3049576352620542,-0.6239603021073252,-0.25937728020825535,0.6893923282152677,-0.1104378120305391,-0.7714144082469291,0.5347760890293388,-0.12311635926419955,-0.7723769859602839,0.6849974387265406,-0.09139216071490162,-0.20402476117626675,0.5635482468863605,0.6892889157163763,-0.2697789531265048,0.49502866076722396,0.5911819360312045,-1.0878814999674236,-0.27780654797920046,0.28306466538403097,-0.5934973752263554,1.079967508473829,0.5107875196208854,0.34071488846976494,-1.697032049863792,-0.3252220828305285,-1.3643092217177841,-1.0519541638374932,-0.2072119155780046,0.20803085703639582,-0.6793358376315246,1.431725483485099,-0.5932234509862501,0.8667635096137439,2.0957019132923547,-0.4508071752329521,-0.17704526092198306,0.8219384307410361,-0.8772551900562643,0.8540083667005557,-0.4269560014908973,1.0829054096768285,0.09685277640826553,-0.3274527460871754,-1.1991418190096017,1769.287346350187,314.5592553162918,0.7072639896054349,Breaststroke
0.7211390068229115,1.6271364753316424,0.07319759685870747,0.883602358005998,-0.598832694528658,-1.349506986648496,-1.0801805877989914,1.232069037796416,-0.3646311414492335,-0.10616260584843654,1.272896069369992,-0.3544939261830245,-1.5523203798044005,-0.1955667464880091,-0.5667281324848636,-0.600442498354923,-1.3527591834342336,0.9937782197196598,-1.7366593495780485,0.12897330018890718,0.28922431979328544,1.0069616373110095,-0.46757697095793394,0.05457942305132146,0.6504610140517312,-0.6526924807986779,-1.6406771949650913,0.5691872042385034,-2.6305686607010843,-1.1550618841305742,1.7617901329470165,0.34413502618295466,-0.8187017551407606,2.4831470573663603,-0.23135639053969456,0.7981744874743109,0.1574377415084664,-0.9774786162142636,-0.42971576575948,1.508552557569047,0.2851141689868294,0.07932910696277806,1.363321912631515,-1.1287653311350136,-1.1852916032630696,-0.4571239413741517,-1.1535398886643602,0.038275076478031744,0.4920681040105731,-0.8899624607195397,-0.5652882997964102,0.16676758827237437,0.057762542835516795,-0.6795504670446915,-0.23285347927879285,-0.49150083355602847,-0.20505006415290244,0.22576597526383302,-2.030205556702409,-0.3646043663407458,1058.7988297913955,366.30895224371454,0.4959166366215391,Butterfly
-0.1219778129741233,0.6425074116726066,0.3337013936085136,-0.1422616655783806,1.4802760507283628,-1.0690805616438537,-0.7445689436497724,-0.6945868205930625,2.263078736769869,0.4103661988159344,-0.0003534015540468949,-0.4964207218399598,0.5274724004639006,1.7049586706565751,-1.1633230076326557,0.7219155144448864,0.5105160763590689,-1.8189337783761128,1.4177399140235019,-0.7374160655196003,-0.466368674109955,-2.2316342224871497,0.8881780977072057,0.8105536296066256,2.00504076244809,1.1977665806345377,0.29883932566945526,1.257531698032948,-0.32353446462051816,-0.5305928909093417,-0.15164832939560524,-0.6886784367207763,-0.7413798046897077,-1.5001779819831047,0.5184195737512909,0.161222034466773,0.38018583841767317,0.06642431501453927,1.9719464224807455,-0.010237310070174171,-0.8187531347565328,-0.571845739881748,1.1253316983327522,-0.758622440590894,-0.36312562112982905,0.17475916335027972,0.9241288659800712,-0.07922677630209825,-0.1740558333438928,0.5466111260550405,-0.5525699864686385,0.7703470766679281,0.12217263214842691,-0.7944579238358154,0.13838000814623427,1.341241693109075,0.07535042034539699,-0.6542931043382918,-2.235846634803189,0.6463452900919844,1735.8158805211197,557.8441795873225,0.49063431546335406,Breaststroke
-0.4672261582186764,-1.8550559790039236,-0.25576754618278325,-2.5867413763573883,0.15427938304992056,-0.7126812883845705,-0.4464502828151946,-0.7849629549374902,-0.7752032515953069,0.06755901349310944,0.3155111216544726,-0.2615216155115959,0.4572497397402788,2.2209638894112205,0.1477810993531105,1.1119771398082439,-1.2113874102561364,-1.96294142172579,-0.7715164401138744,0.3047680770599809,0.6701274901939307,-0.16918913212741127,-0.883541359554342,0.1749430822581458,1.0945437582793982,-0.03338123752098837,-0.35707894251193517,-1.5625221181797517,0.9592227911078133,-0.25792923801651696,0.3285354354499619,0.20927823244227334,-0.20383095660809686,1.325913650828583,-0.326364473857984,1.0272880848796981,-0.4314416378491263,-0.32593679629527267,1.2813140892631796,-0.56165936781574,0.8943022473804354,-0.49140622713377946,-0.1203029776555021,-0.39225678268863673,-0.2941414445407727,-0.4800430945770389,1.071281104989965,-0.29056473707759034,-0.48847086113591265,1.1937577269891975,-1.6234939937380641,1.1520282582842856,-0.21632859366732987,-0.6668547771386488,-0.227801162731951,-0.760277798282789,1.476161219710689,-0.5005613441502468,0.1183765515876522,1.6297615688471172,1602.382818734514,1064.921120856951,0.8856368758181667,Butterfly
0.09059117296039187,1.7034703847675043,-1.0298910224405813,-0.8057722952153066,0.5623603586030151,1.9929100451277126,0.8858716568775042,-0.05492797258591786,1.9399468928245471,0.5731623405402428,-0.28845721794110174,1.9351515940171853,-0.16301015664664936,0.09273331172721783,-0.7798347766103733,1.086653496438543,0.875443718777078,-0.4967274713375441,0.899088860221722,-0.09846195421218851,1.2726841793137689,-1.167500972399757,1.4898225060437562,-1.0048276386988273,0.17860819498631447,0.14978817318243942,-0.6385458358269538,-0.739856867961205,0.8763939458896532,0.11591563904882513,0.6855975166779491,0.13732511203048123,0.9004907814008196,1.3977235690049772,0.3121625859784191,-0.4769107192071878,-0.04282902296616492,1.2504096316101558,-0.5200358032932848,-0.3695047188773278,1.887254032272962,0.7173713399177699,-0.5451708688957704,-1.1432079439422376,1.0344261523657239,-0.337563596179618,1.3728805515087226,-0.2893410929396209,2.023799743444511,0.03311190601106051,1.4722187996720213,1.8719994649472191,-0.7382948092084543,0.15123634903390032,-1.8239220610524123,-1.134595974845585,0.8917075633979703,-0.23007117380322734,1.5928333852701455,0.8561347466416067,414.89487079906985,669.7108814478465,0.3445476357625639,Backstroke
0.1405305963195172,-0.5908965794450173,0.47778615031018923,0.5133341123844894,-0.12292733757049093,-0.5168432720982739,0.0704457647848381,0.07008413877575526,1.1968630676808638,-1.3284983371070054,-0.5221805272965881,-0.05018912508284004,0.21262516133029463,-0.09223062621585554,0.7229047110032774,-1.089813822566418,-1.2958771277499732,0.5724198952736091,0.4284615001465273,2.2961656593850255,0.16007720971098333,-0.15954996833389512,0.13679885187007146,-0.5337059420638675,-0.22464102184982443,-0.18345664374168993,-0.7323353015532037,-1.1686303616469522,-1.2330153060263136,0.44711638929984887,-0.3326710520160259,-0.9849207967950458,-0.567693679026366,0.4474062278409887,0.38153528440033246,-0.9326383792853882,-0.5204420499816884,-0.8914327297829318,-0.2585305605590623,-0.8076924073208737,-0.6081337108058682,0.0932257774580944,0.8487877369293251,2.0696938367110076,-0.08144071232592948,0.13569553102743676,-0.5167479777907604,0.9155122356156074,-1.1172886811865264,-0.40189013654337324,-1.4633571445415943,-1.2374291885045234,-1.892225541617213,-1.520737369422038,0.6449075382403016,-1.4642365011190446,-4.062636328981474,-0.0025528964551234934,-1.2057984784825027,1.4342137043617316,326.7036617711658,810.9084827844373,0.5902791256086001,Butterfly
1.7011862750338962,0.40715507283932345,0.24704133633697206,-1.250251420285287,2.040266427360858,0.1324251622557855,-0.7568569990832494,-0.8112542536987664,0.8040935065846488,0.6882766393074977,-0.7780077139635724,0.8044441222590262,0.9676063425376766,-0.25240021775295035,0.5126166933147541,0.6916240221377958,-0.23390131025231758,0.3017440570753952,-0.9695343173570126,-1.0194519604848362,-0.19762078242091047,0.142977089588014,0.26650858893947105,1.7293752585926185,2.659782450958542,1.0443317399250103,0.8352590993532243,0.2966577750802966,-1.009036407284102,-0.7939847192756277,1.5417490414126616,1.2605414137624442,0.08741736419208695,-0.17550776975396576,1.100904166903642,0.8497225374872193,-0.6530998588617902,0.16953992056785536,1.910815725005905,-1.1661943010836575,1.1485345699810734,-0.8841008643731882,0.7193708860088961,-1.4108092380547703,0.07822031721299069,0.5857405942760368,-2.4533572335514346,-0.19281755494898328,0.8205146230063327,-1.123029325156401,0.11845511085437263,1.483566835210494,0.36182427175751697,1.330724770049961,-0.3736306521727109,0.25225692565967966,-0.7993505445529909,-0.3603624896792859,0.5699096334948337,-0.8874582122845505,883.3117146102179,443.9940973217909,0.6967122326677103,Backstroke
0.1813142178614196,-1.2792539721752665,1.1617347900146988,-0.32669258858695,-1.4337503338367856,0.5092553637989424,1.294160323917153,-0.2848140346909515,-1.9261318364495255,0.5510653511962992,-0.4783369897209981,-0.624793083848648,0.13992522099692056,-1.16928739792469,1.004099941609387,-0.7701505875722215,0.9561500807241777,-0.18640178380653927,0.8351331642598651,2.6979509194462974,-0.42038490866815575,2.3603905638471345,1.2736614784065678,-0.5121060767883923,-0.7392879038562677,0.21393596734784953,0.9778706809715438,-1.0771365704468636,-0.046143191251404855,-1.396842924019152,0.42841717330709345,0.15575065343061528,0.10826447427312962,0.9824022964787938,0.6533365858283944,0.06729917223291818,-1.8709927699572704,-1.1532963667304192,-0.8865728096397671,0.16305154625634108,1.0858237816290992,-1.1510275405427663,-0.7739314853132229,-2.1251380094677184,-0.7644468085909546,-0.9004019821181258,2.450559867817713,-1.4801207588830847,0.4498003147772463,3.3132124636900264,-0.17569657962749158,-0.05014964569935296,-0.6571199917676194,1.2154365742573887,0.3253665152319071,0.8443468821582983,-0.052936913758524655,-0.9783809879895541,1.0802813101583735,1.7634161940326922,857.1129980481105,640.8880183774672,0.6706276402971696,Freestyle
-0.9114436231372903,0.5262020181238957,-0.7077387794799367,0.3384806136890324,1.8382878276687262,-0.23731807106656005,0.9444123064770379,0.5252772064978907,0.031057490362961775,0.6889345300871325,-0.1043888642558086,0.2232564188933462,-0.7013411209443716,0.46311275426457477,-2.4233086184977957,-0.3244998555075754,0.48917411431567326,-1.290835734281498,-0.5507479292311002,-0.9511482436785268,-1.6437025235026723,-0.5387940979790746,1.9225329668144124,0.7688702388482974,-0.17162494553018845,-0.8641955160862201,0.33957894316616855,-0.6890629988189229,0.78518405918123,-2.0061975724946435,0.9886404017755401,0.5108395616710206,-0.7485329636843675,1.9051970563721017,-0.7645708549878288,-1.4397122898970596,-0.6378698759231943,0.588100104861495,-1.2363827615884913,0.7762244146255958,-0.16215321932274648,-0.06914420295688559,0.523943614138735,0.8833844777450932,0.47760423594127827,1.9905686360659827,-1.5705097974715845,1.3651042488356215,0.3505062913954062,-0.28214393252700465,0.026688441593473118,-0.17302706674610116,-0.5859111425609833,0.1275264382999716,0.439705671044535,1.028209615699436,0.6982955717678987,1.9069843510147417,-0.32998735278701674,-0.31635512737475885,1836.2505762513235,200.18235716437007,0.5116085292811754,Freestyle
0.5744270623849798,-0.9013742900675522,-1.8522747273509945,1.2195706957615102,-0.4361538074541377,0.1501529638867084,-1.1511856506097038,-0.03142875072600726,-0.7646947573955469,-0.9695201794708872,-1.9103672466550468,-0.5248034402079336,0.7113559491672948,-0.0003775970146238927,-2.0081507104687844,1.3862266473328106,-0.21857883970363814,-0.37734992682443913,-0.5560736203509853,1.0212246205542104,-0.3026555701344848,0.7987944788315295,-0.46054873373498734,0.3953474560001191,-1.2629084070162964,1.5128409235538514,1.6561021356855798,0.43445703020212,0.2662917587204856,-0.10866798259298457,-0.5431100992683866,-1.347729882533104,-0.8372356970307431,0.9119780417124499,0.12585604491767993,1.6200958177117035,-0.8926844682773747,-0.940631679599299,2.4258041915643185,1.3173923939105654,-2.4739985506983384,0.40107088331145346,-1.3789050551065716,-0.6693955695247586,-0.6031763000334929,-2.5027617449462354,1.7459545578433529,-1.156176255330644,-1.3301225538137085,1.1062548320403391,-1.6396634731779782,-0.5106360880877824,0.43282422102016027,-0.4413161930970694,-0.6481882223387991,-0.37780042400816466,1.0781691492392484,0.27884206377390575,0.9846707569998914,1.972052205384149,1016.1104233628138,572.2866754257661,0.34042263941296674,Butterfly
1.2211507463947922,0.4001696379934737,0.2659739973169247,-0.2750196964544141,-1.106148975815651,0.5806148769517333,1.5241108919195605,0.6808145143614692,0.32009069144047364,1.2155856165836076,0.8768139749961226,0.329656040708357,1.137631310491192,-1.3102212863850438,1.5926726244807154,-0.8995809103641266,0.2700961498390308,-0.3436118208408672,-0.37022226052613,1.1274407237215107,0.21630808609249058,1.308956791428128,-0.4400870958821647,1.0598169321572717,-1.51825257619649,0.7619686779971717,1.4153853013109787,1.370079515521164,0.41546426330490605,1.0564510741114237,-0.24068150260177795,-0.2196606883818159,-0.16732787492585427,0.6354921055342344,0.3435094052493149,2.0518332201106415,-0.7898699228026267,-0.07610946927769768,-0.1865544538240127,1.092931296756082,0.5147587890349334,-0.3682485104318964,0.5682755035296259,0.7034631230532867,-0.42129576372516836,0.9911394823885544,-0.8654623128750258,-0.003718974858556545,0.3798629712350682,-0.46901290178053195,0.566779639085357,1.0478679620718738,0.11206282137579249,0.024024364427987777,1.2128628031931825,2.314769051729156,-1.380076169769747,-0.7406678018871311,-0.07608115249167541,-0.6693504424210579,1464.475461156713,238.60165713497153,0.39801175552517887,Backstroke
0.4046595284477861,-0.534099005360783,1.045952688284265,-0.8934877090831294,-1.002209731643056,-0.12741143440075658,0.07693841259627626,-0.5739687123812294,-1.3129667923878823,-1.5672348617768252,0.7721282705262742,0.3989455708655443,0.31768004004935924,0.20600198518966306,-0.9695209810452088,1.9186965954356427,-0.1594468269202528,-1.1724957582565227,1.3637935731152362,-1.1595651836705638,-1.6275259583723793,-0.44488944943921355,0.17898456721177325,0.18119485152553233,-1.129756156517871,-1.40201347886041,0.30134467152992994,0.44302085674485925,0.3920516278935837,-1.4233516441986673,-0.5931777366764347,0.5701467757094126,0.03801749729503906,-0.14173669818408963,0.14184197995354425,-0.058557746480368655,0.33204097900152596,-1.2017405413222293,-2.27013722107364,0.4983854688504479,-3.2873936032310787,-0.7791253205289993,0.037450297573189684,-0.27165249143561915,-1.278556148345025,0.6860798453517356,-1.505634266561221,0.7098352721530806,-0.7790445501656825,-1.7067845015832595,-0.9559827664976335,-0.7632584715581855,0.3998854584084832,0.703212609567336,1.7452496229039924,-0.7209088118309062,-1.0077259592562242,-1.4385397772504571,0.00023977392617047233,0.8210475042226046,164.87908335167134,840.8617585962994,0.6605172751362052,Butterfly
0.5954989065249826,1.775012801735852,0.010942136616050813,-0.2024457664955005,-1.8008072627235827,2.6164660844189584,-0.30645530292524636,0.5437099524626579,0.6062579490500525,-0.5808181540440489,-0.1579177349093244,-0.6502338402469329,-0.9837318767779751,0.1331398530560002,-1.6163827518899014,0.39953435062878195,-0.9415417048611971,-1.1573616254856476,-1.3199747507916313,0.44947147003702503,2.214154068216233,-0.03115043152985711,-1.5730328179294797,0.6067340354899919,-1.0101320143408816,-1.9658765190785354,-0.8527475717323197,0.17052033436908173,0.10746018313733177,-1.412551665473293,0.14895935727178863,-0.4306932518807537,1.4587902160242918,-0.6982096973725771,1.6735711560975468,-0.8369079879325569,0.09408002103733656,-0.4005693173341268,-0.9731438429492298,1.0161134866131336,1.5312242932760716,-0.008702913476190288,0.3279001832515761,-0.5529796743811941,0.8755442238163983,0.9156510712044911,-0.06997593217806458,-0.8220583192172003,0.7853180247440125,-0.837309995637734,0.3745572099330744,1.2127349069670597,-0.8068217852538605,-1.1634473179315121,-0.3743720799031509,-1.3088564602806514,0.14353027938384036,-2.471978285107411,1.6006857871172482,-1.3499298864471778,1410.3108706196597,246.5913399580202,0.664656323302003,Breaststroke
-0.42092813015780806,1.8322603001455897,-0.34966979917285657,0.2009129698101024,0.50365674558564,0.7611258440443519,0.2080800444793122,0.9064161220028556,0.8349850271110658,-0.42551908229416413,-2.8472420584385056,-0.5480454360083922,-1.4810324935042993,-0.7512446875415921,-0.35269840655254675,-0.6161127658936818,-1.6666972610948128,0.04193921798128117,0.2802877805971238,-0.64580974009681,0.4062468200767726,-0.14952308709982334,-1.4510291722980297,-1.6315524081203143,-0.7751024975193784,0.5388121500815183,0.9811585716139563,-0.8126105143563446,0.44934811950957776,1.738557511503295,0.9676912867742925,-0.3728927382508763,-1.3956940594404688,0.04946150308131819,-0.3605067585927163,-0.8142599784956238,-0.7424847773193122,0.5039184247302283,-0.57894712743994,-0.3058283771615521,0.5190534985549377,-0.026584407902094778,1.0606488532205731,-0.26888705833965937,-1.6356291932930516,0.20380204729815835,-0.2162922340619413,0.9484769440473336,0.10712396435198521,-0.016963880678457555,0.7479733205390849,-0.29895524249970135,-0.4845626474154273,0.3988767562286205,-0.5124917669686502,-0.5263977480328834,-0.5066936400138037,-1.117223925397616,0.5639013331801789,-1.2811000441633555,1620.0039465785107,390.5022767091092,0.4195127680416059,Breaststroke
-1.1789891671305797,-0.20348682978525862,-1.120347017657433,-0.4042468273960941,-1.2882929503465195,-1.3317219847067305,-0.2757707956255219,0.7464393121627113,0.9200243020669414,-1.512409062503299,-0.5029927644150974,-0.7364146692818822,-0.17347608959422772,-0.9165226608788296,-0.007654252869278705,-0.1817838785559609,0.3191729932328272,-0.9703272185818431,-0.873661222479622,0.024849579494659046,-1.0904456631967907,-0.9937613464503898,1.0568727767724948,1.2653305110850785,0.362266361578475,1.0425691958432581,-1.0186161242561464,-0.2287337854177236,0.6874132080242569,1.027380707130891,1.846701147131026,-1.311113532796089,-0.010854001510152672,0.39056462359527266,-0.2279752430323242,0.13678440319125384,-0.5614717633233404,0.04407364139760611,0.5588467188869302,-1.5912098264724333,-0.44159490437552645,-0.3010571545061828,-0.744996628973821,0.13327858752746796,0.2302139226880584,-1.5911608307967398,1.9342861847769335,-0.14311764883561373,1.2370069438598212,-0.17591414472826875,-0.20779351840656674,0.5654430749619362,-0.38726694580488363,-0.6238204475210052,-0.2719650291600332,-1.3704601360341007,-0.23377586023375108,-1.5036418251386703,-0.3957035953374867,1.9824805072070553,789.7841428139022,1047.3006249655532,0.2406656355871876,Butterfly
-1.1181934306407797,-0.18602228863114526,1.5077664666808224,0.7992683488858106,-0.08133233379529983,0.12022218618916386,0.29507865448140647,0.17761023284313576,-0.632178716384534,-0.540711011504804,-1.64338621236748,-0.7557196434069802,0.679571126614457,0.1737797674102065,-0.40801451942388756,-0.9349644184819287,1.2801000439033854,-0.2565174144700834,0.8410721460157102,-0.10213270690174514,1.8041919642217819,-1.0802737348060498,0.3218600587562013,-2.0565785532495884,-0.2618938005766839,0.20199616176559798,0.4968003559170574,0.8907019624876413,-0.6948715534483412,1.083754718937806,-0.07501235552404573,-0.05313477463734265,-0.4795445456798837,-0.10961488234338704,-0.8127072946861797,1.186508703566121,-0.026909112203154284,0.9649056782426935,-0.21722543454626883,0.5279620734494224,0.7647306139932974,0.13436494987436504,-0.8897391813179962,0.8672868578672994,-0.2287999997314205,1.730890405050937,-0.9030908429715817,0.24700006380023098,1.1897935374207156,-0.9496456039005435,-0.8273827631829415,0.3159754923637609,-2.05827000176353,-0.7017408679357433,0.30849763353486603,-0.6154949179106237,-0.5031889849586029,-0.28156329980984107,-0.880906610982969,-1.105889261376917,957.7617452644324,1036.2300137393436,0.4315224165100029,Butterfly
-1.635463248457858,-0.37344296634951507,-1.0296025948847793,-0.7991438330284719,1.1342170301658476,-0.7917368066597202,0.18731552313116723,0.938892608723679,-1.0594251020467733,0.2214809143448012,-0.6096190325367516,0.17323523057361473,1.0403728809618988,1.6088816551806453,0.4680141464928111,-0.5469140164585738,0.6042329288603249,-1.7690137971031707,2.321354456270851,-0.34930985756922917,-0.49604904251501236,-0.40983293328960957,-0.8581685799216043,0.3118062932663227,1.01100414286239,0.61268339873304,-2.4440210584500424,0.661555743411683,-0.885814228175898,0.349207152117385,1.86328619458297,-1.079156067680894,-0.16978158273356497,0.022953918220167863,-0.19175741552507927,2.645232843846798,-0.7268733363139357,-0.7170835888763538,-1.411380724494441,-0.7142959143764094,-1.1173237451131395,-0.9065517215003073,0.027168824018401743,-0.7768201030970254,-0.5466180756874569,-1.3350160397449369,0.9181058653126388,0.22332306515333364,-0.3938806354364927,-0.4935314411257305,1.5971446209401436,-1.00215972894846,-0.7849110471815335,-0.1323192494497949,-0.6391836018384457,-0.2216925585256267,0.3857647296574333,-0.23091027572140987,1.0813999041503322,0.24842654176658163,1053.1544571286831,727.4696702918815,0.4063545863833579,Freestyle
0.5369486115459497,1.4060062915027862,-0.42539425762823996,0.42016093337904353,-0.37201692856613683,0.7462507640598537,-0.03742605227220286,1.1710605841147306,0.6516814164707847,-1.5257721818333356,1.7519363006285247,-0.06398192532262292,0.8843818340999428,0.6983956296554028,0.6325001860499837,0.37329579352648173,0.5541724155957768,0.8031385409124565,-0.3303452609011876,-0.13242997889382996,1.1303390379842944,-0.8384069660402185,3.435047299398569,0.25154689043778067,0.45096571393964313,0.9378682130312241,-0.19379160061329337,1.1846474075845674,1.0289058773832542,1.0053933784134192,0.9262131039160817,0.6657743080764351,-0.18800371475677413,0.336658076439274,-0.3773934165095541,-0.0014034812700220445,-2.2542638080678503,0.24516327799848134,-2.639021795878183,0.21001717220244354,1.5036294111620436,1.814159620548646,1.115309379559281,0.7502196869373303,-0.41704743245555337,-0.7461669852613435,0.8113888180618185,0.03400423798177543,1.739917009957433,0.4040931781303483,0.7075327601188999,-0.598617369506047,1.6527368639753612,0.452342177831754,-0.21613690248238132,1.9496216230117573,1.9574287824609637,-1.0592392907557067,0.8896958818252525,-0.8726821659367552,473.64141144644645,812.3373212535325,0.4925161150289775,Backstroke
-0.08344878322659362,-0.32891987033337716,0.5700341960840228,0.44521271024701903,-0.2681036930243923,-1.3751874171082699,-2.0258267591613834,2.6765079066841464,1.7560743221487412,-0.3946883837708456,-2.434473082869535,1.4979563635785744,-0.45045417811345445,0.7804842512527608,0.2801513434293208,-0.328920965680554,-1.2085240770798997,0.2407133403764284,0.1400588079125574,0.34087238222580424,0.08763258948339821,-0.5003904761090857,-1.382134240453632,-0.6256325163481646,0.1790574906926576,0.004756562814498546,-1.397721433728895,0.9506527938342542,-0.5107568770846267,-0.2870453841028326,-0.6684026115749621,-0.992860570567264,1.1412454938813903,1.9363337455540743,-1.0729975312782598,-0.3560051965081411,1.1964272322890168,1.0870187385288468,0.4877701286569399,-1.0114336991220538,0.2845210308439862,-0.29975554750571853,-0.20964912751140888,-0.48525110930952536,0.018264227132053563,-0.5137007071283968,-0.8846905886986297,1.549636567361689,-0.6127931392738324,-0.8242890249182534,-0.786408037218929,0.6683753382297706,-0.6706390335812406,-1.438282362689379,-0.057900808192995534,-0.9805887019321877,-0.2757759410815146,0.81124076688792,0.6655898472532972,0.03453616500730711,792.071293181466,1048.662078619898,0.5197914533782553,Freestyle
-0.5899877045297087,-0.5713372746456993,-2.00602068988679,-0.5502328099058567,-1.4533666099160156,-1.2577794480839788,0.37718254063192613,1.0680670700487085,-0.08061036538646621,-1.8984009322633237,-0.9663625248873582,2.5291627111941666,-0.9542073999941806,-0.9821963936398588,1.1983709881778495,-1.082967632265527,0.7271742708931943,-0.38136925632427965,-0.5352022559042282,-1.0538222478530799,-0.6117585479955678,-0.34546645468291304,0.46972291730575455,-1.1251602502301377,-0.44135208012412264,-1.831478940729611,-0.4362478779611988,-0.47796878879514215,-2.0964294852055807,-1.573733437156847,-0.031097315160014585,-0.35940091079163494,-2.5758511269482174,0.12923627176688476,-2.105649791827541,-0.31539430875998975,-0.26460026673845993,-1.1495617278345742,-0.090815899541379,1.0035507251096234,0.15247925951369787,1.5307012729578655,-1.7569404171729344,-0.5365339231260748,-0.6874715456749009,-1.3921074128201525,0.4116012535128637,0.5985646611554852,1.1880764359250002,-0.6563225978314603,-1.2963026588624063,-1.5150956946572098,0.004959394785979482,-1.106878038721789,-0.8486082955947541,1.9155143062784807,-0.5304835406325836,-1.4943505763060878,-0.006935825895102804,1.881770710836319,948.646395218829,1048.9830188146082,0.40300304221717154,Breaststroke
-2.65561882434507,1.2785928636649644,1.5745906653813397,1.1397099365599668,-0.08835710895119764,0.643907562490127,-0.07365527838673369,0.21125586336471852,0.7522970861121,2.341538784316944,1.1295696118548928,-0.2679422851873126,0.28313317000328364,-0.11427238957617564,0.28581967338752623,0.07858951197975467,0.7813943874533875,0.4615169585352671,1.3380711875078606,-0.5660949613412982,-0.0369415565829776,0.461819187389733,-0.4964989533479263,0.8497496563821871,2.2469640701422486,-0.3988798535895642,-1.2391653375269758,0.9337402819147831,1.7273884612234094,-1.0731807148656052,1.0692699819274925,1.875022198523166,-0.8356471585542735,0.6165264656000717,-0.3953496545611714,0.7085850434488219,0.5702460937454836,1.4414692430072926,1.5046487915467688,1.1500445247344013,-0.06919574384355465,-1.8764273806302516,0.03647901683368171,-0.5991550756372366,-0.2769169936423,-0.9338546362849316,0.226061807276241,-1.4571757834162495,-0.8708732656944647,-0.8186868384882002,0.6725767386059381,0.4445347678133035,-0.4449507884880793,-0.33009426390940494,-0.331932468256165,0.6786022484573553,0.614567450109631,1.0663462998289561,1.1446646032088112,0.5830253763801003,432.8984259591334,131.05416096540014,0.38916838242155555,Backstroke
-1.3973174696941688,-0.6882990953166495,0.47419311421735555,-0.0010414587576504652,2.4240236252733722,0.8476691135980253,0.6279466096452462,-1.0616792873468694,-0.3849234458819979,0.06249121693398371,-0.8519261195486607,0.14400285820469413,-0.15738399129169225,0.4580167728860506,-0.19358025252462946,-1.464614777969106,0.6101465008328266,0.78416828085735,-0.3987017751915257,0.8049761523232943,1.2866517050281288,0.2936838775302538,1.6310704061064718,0.6513380458964797,-0.5733849835180693,0.6445687772254154,-0.12144017955844105,-0.5297652558321285,0.10404736418539942,-0.146814895967352,0.6966239418028465,0.21577957173349457,0.940011245938612,-2.444669800312905,-0.7764690309449913,-1.0046597605653642,0.022029298880358705,1.3185381883041982,-0.7883005076419298,-1.552327586836067,-0.4064212867174476,-1.844028403664823,0.009079262318094028,-0.46283913736716986,0.843944267548861,-1.0150096236392216,1.0354150260175574,-0.6170460617080005,1.341114906936872,0.6065439112239658,-0.4881680524753689,-0.6183922880241706,-0.8799859651058348,0.1195242335945105,0.37341698627569764,1.8126509236330903,-0.05535101113075715,-1.1025468766840871,-1.0726582242151146,-0.6835362658367089,1876.580101555813,105.13454675321479,0.3238186424907827,Breaststroke
1.3208406514031668,0.16224496555146944,1.0992310718111098,0.9888457131522739,0.9779331641104418,0.7026443487530132,0.6816750622757204,-0.06114025475911067,-0.30347020589576296,0.32582928383100773,-0.5784301771719251,1.2380075760552371,1.3072952931986812,-1.1583448846490652,1.0028114894682905,-1.071814661565109,1.2338910106512035,-1.2488100257494024,1.1055223863941328,0.6283862091724823,1.076230070919082,0.0036623739849977743,-0.33092823409436417,0.0969255295262375,1.1166847154995179,0.7860506513819459,0.6670756489871601,0.795167486022256,0.40942370156229746,1.125006960024519,-0.27961664950466875,-0.14645525534570752,1.3648334715150958,1.2697179599511839,0.14118453504469025,-1.1627384781784345,-1.24296898356059,-0.957716722224472,-0.07408223677371745,0.30162103892639125,0.797757775307605,0.11703581106851904,-0.5776926163219571,-1.0482553846072178,0.04589433286435782,-1.7258009291363645,-0.010390963186950597,0.9726780636183296,-0.5022567791300567,-1.147122039334796,-0.9085766409657416,-0.2120813762743532,0.4147630788211534,-1.6366096066642513,-0.5289449896643992,1.1106364726860385,2.6446477031837436,1.12441393563282,-0.5295963959523289,-0.19414389786343533,703.3727922097829,914.06062725015,0.31090376631280714,Front Crawl
-0.364626000063131,-1.2813107815109928,0.8581170119496542,0.494104108048832,0.03526958110639511,1.154117334535218,-0.04766421115600927,-0.031784855599979456,0.9582759386044988,0.5320734116591408,2.3324061686075273,0.034250937976021634,-0.17971439632112518,0.5072016983035093,0.8526597077064542,-0.982053791900146,1.886006967043655,0.3666958168934887,-0.09773092783609111,-1.0066671966612857,0.17759512006175027,-0.469085147270541,0.015387047958663858,0.010750747547471073,-0.8822047808844795,0.10436804982461198,-0.35010365841388275,1.5267198589109545,0.11510116963003375,0.13251911338309635,-0.05607433112894644,1.1568239192573482,2.0599506026672936,0.9907464405617306,-0.23925897543755842,0.06709985563171947,-0.38697235520588397,2.6832862340374684,-0.2441630702863849,1.3408383631966354,-0.5804449056092227,1.3009272719567202,-2.0508647565564564,-0.8586862285329893,0.30746016956217503,0.432269761213332,1.791137253922936,-2.081737596075209,-0.035059972482645974,-0.03467949739344922,0.37758278448427424,0.6799542876154043,-0.8928961006157281,1.2182728376322116,0.5758930854357982,-0.2206794833637084,-0.008792590643177334,-0.4316663774576783,-0.6150086741751004,0.1781228344994442,955.3767380638155,275.43001501082676,0.6298020677015506,Backstroke
0.11059167765684141,0.4541903451231669,-0.4111235174563701,0.126404571487228,-0.8616880361817151,0.12381855876384601,0.7729881910773351,0.2614225677258678,-0.3560667673388657,0.3545206306008323,0.1283873934105239,-1.244391139305733,-0.6466492766243261,0.243423033197456,-1.1528582425987937,1.4213246009194715,-1.3647218506459458,-1.5551394937390508,1.993737498763577,-1.2532798246641348,-2.3003240307910784,0.1755578982676121,-2.0587571896483263,1.0314278091104796,-0.4934587635442571,-0.7981481389322148,-0.5700375173707788,1.3038270982770708,0.5872046373893748,0.3590091909696319,-0.5851677884626987,-0.9734993017156606,0.05663449886387617,0.3934191661518496,0.7824973226246774,0.059902643524144705,-0.2633353508748253,-0.5773195457322415,-0.8678944034822148,-0.37671048090349324,-1.476693934026743,-0.01653488607278844,0.061661493399169154,-1.1823094740380622,-1.052125351315747,-0.6735778380983926,0.12981251533742882,-1.0872269672163406,-0.4194880697186749,0.25871381007381344,-1.5088927393893068,1.0707000805490166,0.5338147460053998,1.2855506592546306,-1.245638626248938,-0.5437631159207125,0.3596066732868628,-0.9860066762605404,0.3594508605381056,-0.2025999728500238,420.63336407542783,654.9324083618109,0.5967792468157616,Butterfly
-1.0906854299752562,2.2408669391818687,-0.7631487101554228,-0.33239175684935535,0.2573666043435666,0.4724960990323319,0.504841661836571,-0.4002562451892993,0.70352291152933,1.2781548498345283,1.2343024110319758,2.038173311464758,2.3549911002727666,0.26146590003842474,0.20788625291457058,0.7056240037619178,-0.9889769338888998,0.3876083111316141,-1.891524194674069,-1.8365108486857304,0.604427891219649,1.090966885061854,2.382645820278383,-0.12170850729462201,2.307569789200572,0.4738612123177549,0.5194822352736965,0.8947029971033604,-0.983219263097268,0.2102932279806892,0.1023792191673416,-0.6862177477291955,0.7822005441904067,1.010996448983864,0.5267521778117277,2.0142583937319247,0.10082157800118624,-1.4406436031194167,0.6783463210311609,0.2850907416367627,1.3942957033539387,0.19230263592633046,-1.0082193600194331,-1.9817371973611018,1.2947335356297336,0.06660228291637255,-0.901197240487063,1.3595854801716523,-0.292904274402162,0.8853458753394776,0.37759399422105516,0.8403778504644088,1.0179114620577203,-0.5169947306758746,0.4438699744037773,0.18031645048704165,-0.3071039403429406,1.5630020553548927,-0.3743768345325335,0.7032137190810086,1811.834449232636,1028.891330458281,0.4931152336276627,Backstroke
1.4387054823592311,0.7212253727997919,-0.14007544122496063,-0.6307717051912234,0.1300507521936395,-0.5036932742584369,0.16364284737808724,1.1921771715204037,0.5075068572770276,-1.5635539288146632,0.49466971787421915,0.6861572938052026,1.5512222363868797,0.31937203243826756,0.438229098346194,0.5958570524183764,0.14815405057191233,-0.2588540279719497,0.3768656014710046,0.9096898196254022,-1.2464749429003774,-0.48585976906271156,-0.6179501746573605,-0.04218184031971913,0.6850402550123622,-0.3431300698916636,-0.047097246054623475,0.3939106746627221,0.0035483831768761465,0.3043766635408488,0.3053731477669143,-0.36469834894731823,-1.8630893699546152,-0.8456432919823982,0.7420438231007214,-1.0793909242990896,-1.1344841646397348,-1.1507264921703129,-0.4628745329354061,0.9667198241355661,0.5407364025343216,0.28518543422368214,0.9678772512937491,-0.9701892132516559,1.2215188871870137,0.29651327060164734,-1.7723539302447586,0.3084515043278422,1.3653058158125133,-1.1593138594519936,0.2628464199100932,-1.3635848229025265,0.5865569222673603,0.006048031251013222,-0.797115366554611,-0.3281381344094451,-0.36177630790624543,-1.1674884179620795,-0.7949430320722913,0.7975802537327834,1437.1230553511355,164.51120485902163,0.25169504650191565,Freestyle
0.05597233994532361,1.661799167547305,-0.7752363117526349,1.4243964799287767,-0.2190697071457578,1.013001808716797,0.0618893132368577,-1.1895630058952957,0.5475168391389083,1.510177597426757,0.36169739159877823,0.5186904529730578,-0.6827804411640899,0.25781984778377254,-0.3868281402353219,0.21126096747888126,-0.7225181688842139,0.1750883799325762,0.18945864988273034,0.8885760585578817,0.7385929671885019,-0.7826204140201982,0.6801883811410396,-0.0036067326596049276,-1.1997193873119003,0.1204736006551457,1.547922418319707,1.5877450670275917,0.4822776196970769,0.9708468049759928,2.0880705874797374,1.2986758596955412,0.20293499022501085,0.013009973260156099,1.1830413271714149,1.329409762859106,0.5425754413603032,-0.009074319365972028,-1.4899737665262258,-0.06471418886551833,-0.7516439800847099,0.17895471986443282,2.5037567450960276,-0.3240424508334682,0.41852666687926227,0.08644421040092187,2.0375064840988015,-0.3357330320662229,-1.503217050913923,0.9642200087955064,-0.6564219076335382,0.2490920481543364,-1.9226955847400828,1.1898500445685152,0.10629161894504799,1.826933144302243,-0.7786614870157513,1.3615572029797371,0.33445874178761037,-0.4275978674825049,232.8105473213608,197.83838833678925,0.5356002809577632,Front Crawl
